TrialRows_Name,TrialRows_Proffession,Task,corrAns,StimFile,Name,Proffession,Letter1,Letter2,Letter3,Name_trials.thisRepN,Name_trials.thisTrialN,Name_trials.thisN,Name_trials.thisIndex,Encoding_Name.thisRepN,Encoding_Name.thisTrialN,Encoding_Name.thisN,Encoding_Name.thisIndex,ImmediateRecall_Name.thisRepN,ImmediateRecall_Name.thisTrialN,ImmediateRecall_Name.thisN,ImmediateRecall_Name.thisIndex,Proffession_trials.thisRepN,Proffession_trials.thisTrialN,Proffession_trials.thisN,Proffession_trials.thisIndex,Encoding_Proffession.thisRepN,Encoding_Proffession.thisTrialN,Encoding_Proffession.thisN,Encoding_Proffession.thisIndex,ImmediateRecall_Proffession.thisRepN,ImmediateRecall_Proffession.thisTrialN,ImmediateRecall_Proffession.thisN,ImmediateRecall_Proffession.thisIndex,key_resp.keys,key_resp.rt,key_resp.started,key_resp.stopped,text_8.started,text_8.stopped,polygon_5.started,polygon_5.stopped,Jitter,key_resp_1.keys,key_resp_1.started,key_resp_1.stopped,image.started,image.stopped,text_4.started,text_4.stopped,polygon_6.started,polygon_6.stopped,key_resp_ImmediateRecall.keys,key_resp_ImmediateRecall.started,key_resp_ImmediateRecall.stopped,image_3.started,image_3.stopped,text_6.started,text_6.stopped,Circle.started,Circle.stopped,key_resp_Circle.keys,key_resp_Circle.started,key_resp_Circle.stopped,key_resp_ImmediateRecall.rt,key_resp_Circle.rt,key_resp_1.rt,text_9.started,text_9.stopped,polygon_4.started,polygon_4.stopped,participant,session,date,expName,psychopyVersion,frameRate,
,,,,,,,,,,,,,,,,,,,,,,,,,,,,,,,,,,s,9.423749000008684,31.365122799994424,None,,,,,,,,,,,,,,,,,,,,,,,,,,,,,,,,,,,001,2022_Oct_24_1816,FacesNamesProffessions_Encoding,2021.2.3,None,
6:12,36:42,encoding_name,2,Images_Faces/O42.jpg,Robert,0,D.,R.,J.,0,0,0,1,0,0,0,5,,,,,,,,,,,,,,,,,,,,,55.833189100027084,60.84730820002733,60.79601440002443,None,9.25,None,62.8816119999974,None,62.8816119999974,None,62.8816119999974,None,66.83055020001484,None,,,,,,,,,,,,,,,,,,,,,001,2022_Oct_24_1816,FacesNamesProffessions_Encoding,2021.2.3,None,
6:12,36:42,encoding_name,2,Images_Faces/O41.jpg,Christian,0,V.,C.,H.,0,0,0,1,0,1,1,4,,,,,,,,,,,,,,,,,,,,,,,,,9.5,None,76.104601500032,None,76.104601500032,None,76.104601500032,None,80.1033441000036,None,,,,,,,,,,,,,,,,,,,,,001,2022_Oct_24_1816,FacesNamesProffessions_Encoding,2021.2.3,None,
6:12,36:42,encoding_name,3,Images_Faces/O39.jpg,Björn,0,J.,R.,B.,0,0,0,1,0,2,2,2,,,,,,,,,,,,,,,,,,,,,,,,,7.5,None,89.62815689999843,None,89.62815689999843,None,89.62815689999843,None,93.62630360003095,None,,,,,,,,,,,,,,,,,,,,,001,2022_Oct_24_1816,FacesNamesProffessions_Encoding,2021.2.3,None,
6:12,36:42,encoding_name,2,Images_Faces/O38.jpg,Leif,0,J.,L.,E.,0,0,0,1,0,3,3,1,,,,,,,,,,,,,,,,,,,,,,,,,4.5,None,101.1497428000439,None,101.1497428000439,None,101.1497428000439,None,105.14837370003806,None,,,,,,,,,,,,,,,,,,,,,001,2022_Oct_24_1816,FacesNamesProffessions_Encoding,2021.2.3,None,
6:12,36:42,encoding_name,1,Images_Faces/O40.jpg,Axel,0,A.,M.,B.,0,0,0,1,0,4,4,3,,,,,,,,,,,,,,,,,,,,,,,,,7.25,None,109.6715058000409,None,109.6715058000409,None,109.6715058000409,None,113.67200140003115,None,,,,,,,,,,,,,,,,,,,,,001,2022_Oct_24_1816,FacesNamesProffessions_Encoding,2021.2.3,None,
6:12,36:42,encoding_name,3,Images_Faces/O37.jpg,Ulf,0,N.,K.,U.,0,0,0,1,0,5,5,0,,,,,,,,,,,,,,,,,,,,,,,,,3.25,None,120.94261070003267,None,120.94261070003267,None,120.94261070003267,None,124.9411496000248,None,,,,,,,,,,,,,,,,,,,,,001,2022_Oct_24_1816,FacesNamesProffessions_Encoding,2021.2.3,None,
6:12,36:42,encoding_name,2,Images_Faces/O42.jpg,Robert,0,D.,R.,J.,0,0,0,1,,,,,0,0,0,5,,,,,,,,,,,,,,,,,,,,,,,,,,,,,,,None,128.2459491000045,None,128.2459491000045,None,128.2459491000045,None,133.31439120002324,134.3149623000063,None,133.31439120002324,134.3149623000063,,,,,,,,,001,2022_Oct_24_1816,FacesNamesProffessions_Encoding,2021.2.3,None,
6:12,36:42,encoding_name,3,Images_Faces/O37.jpg,Ulf,0,N.,K.,U.,0,0,0,1,,,,,0,1,1,0,,,,,,,,,,,,,,,,,,,,,,,,,,,,,,,None,135.48357550002402,None,135.48357550002402,None,135.48357550002402,None,140.58516020001844,141.5855869000079,None,140.58516020001844,141.5855869000079,,,,,,,,,001,2022_Oct_24_1816,FacesNamesProffessions_Encoding,2021.2.3,None,
6:12,36:42,encoding_name,3,Images_Faces/O39.jpg,Björn,0,J.,R.,B.,0,0,0,1,,,,,0,2,2,2,,,,,,,,,,,,,,,,,,,,,,,,,,,,,,,3,142.75514520000434,None,142.75514520000434,None,142.75514520000434,None,147.8513744000229,148.85571370000253,2,147.8513744000229,148.85571370000253,3.8923508999869227,0.4478726999950595,,,,,,,001,2022_Oct_24_1816,FacesNamesProffessions_Encoding,2021.2.3,None,
6:12,36:42,encoding_name,2,Images_Faces/O41.jpg,Christian,0,V.,C.,H.,0,0,0,1,,,,,0,3,3,4,,,,,,,,,,,,,,,,,,,,,,,,,,,,,,,1,150.02046910003992,None,150.02046910003992,None,150.02046910003992,None,155.10585240001092,156.10787579999305,None,155.10585240001092,156.10787579999305,1.3844928999897093,,,,,,,,001,2022_Oct_24_1816,FacesNamesProffessions_Encoding,2021.2.3,None,
6:12,36:42,encoding_name,2,Images_Faces/O38.jpg,Leif,0,J.,L.,E.,0,0,0,1,,,,,0,4,4,1,,,,,,,,,,,,,,,,,,,,,,,,,,,,,,,2,157.27701140003046,None,157.27701140003046,None,157.27701140003046,None,162.37582549999934,163.3783487000037,None,162.37582549999934,163.3783487000037,0.6225654999725521,,,,,,,,001,2022_Oct_24_1816,FacesNamesProffessions_Encoding,2021.2.3,None,
6:12,36:42,encoding_name,1,Images_Faces/O40.jpg,Axel,0,A.,M.,B.,0,0,0,1,,,,,0,5,5,3,,,,,,,,,,,,,,,,,,,,,,,,,,,,,,,1,164.5472825000179,None,164.5472825000179,None,164.5472825000179,None,169.64925670000957,170.6500240000314,None,169.64925670000957,170.6500240000314,0.5300449000205845,,,,,,,,001,2022_Oct_24_1816,FacesNamesProffessions_Encoding,2021.2.3,None,
6:12,36:42,,,,,,,,,0,0,0,1,,,,,,,,,,,,,,,,,,,,,,,,,,,,,,,,,,,,,,,,,,,,,,,,,,,,,,,,,,,001,2022_Oct_24_1816,FacesNamesProffessions_Encoding,2021.2.3,None,
18:24,48:54,encoding_name,2,Images_Faces/O51.jpg,Ingemar,0,T,I.,M.,0,1,1,3,0,0,0,2,,,,,,,,,,,,,,,,,,,,,,,,,4.25,1,171.83030289999442,None,171.83030289999442,None,171.83030289999442,None,175.80035390000558,None,,,,,,,,,,,,,,,0.6716666999855079,,,,,,001,2022_Oct_24_1816,FacesNamesProffessions_Encoding,2021.2.3,None,
18:24,48:54,encoding_name,3,Images_Faces/O53.jpg,Christoffer,0,S.,H.,C.,0,1,1,3,0,1,1,4,,,,,,,,,,,,,,,,,,,,,,,,,2.5,None,180.07097310002428,None,180.07097310002428,None,180.07097310002428,None,184.06905230000848,None,,,,,,,,,,,,,,,,,,,,,001,2022_Oct_24_1816,FacesNamesProffessions_Encoding,2021.2.3,None,
18:24,48:54,encoding_name,3,Images_Faces/O54.jpg,Rickard,0,R.,J.,R.,0,1,1,3,0,2,2,5,,,,,,,,,,,,,,,,,,,,,,,,,6.5,None,186.5874579999945,None,186.5874579999945,None,186.5874579999945,None,190.5878936999943,None,,,,,,,,,,,,,,,,,,,,,001,2022_Oct_24_1816,FacesNamesProffessions_Encoding,2021.2.3,None,
18:24,48:54,encoding_name,2,Images_Faces/O50.jpg,Patrik,0,C.,P.,B.,0,1,1,3,0,3,3,1,,,,,,,,,,,,,,,,,,,,,,,,,7.5,None,197.11164640000788,None,197.11164640000788,None,197.11164640000788,None,201.10957100003725,None,,,,,,,,,,,,,,,,,,,,,001,2022_Oct_24_1816,FacesNamesProffessions_Encoding,2021.2.3,None,
18:24,48:54,encoding_name,1,Images_Faces/O52.jpg,Håkan,0,H.,F.,H.,0,1,1,3,0,4,4,3,,,,,,,,,,,,,,,,,,,,,,,,,7.75,None,208.6344468999887,None,208.6344468999887,None,208.6344468999887,None,212.63193820003653,None,,,,,,,,,,,,,,,,,,,,,001,2022_Oct_24_1816,FacesNamesProffessions_Encoding,2021.2.3,None,
18:24,48:54,encoding_name,2,Images_Faces/O49.jpg,Arne,0,L.,A.,M.,0,1,1,3,0,5,5,0,,,,,,,,,,,,,,,,,,,,,,,,,7.25,None,220.4062298000208,None,220.4062298000208,None,220.4062298000208,None,224.40443930000765,None,,,,,,,,,,,,,,,,,,,,,001,2022_Oct_24_1816,FacesNamesProffessions_Encoding,2021.2.3,None,
18:24,48:54,encoding_name,2,Images_Faces/O49.jpg,Arne,0,L.,A.,M.,0,1,1,3,,,,,0,0,0,0,,,,,,,,,,,,,,,,,,,,,,,,,,,,,,,None,231.6953619000269,None,231.6953619000269,None,231.6953619000269,None,238.78104760003043,239.78155100002186,None,238.78104760003043,239.78155100002186,,,,,,,,,001,2022_Oct_24_1816,FacesNamesProffessions_Encoding,2021.2.3,None,
18:24,48:54,encoding_name,1,Images_Faces/O52.jpg,Håkan,0,H.,F.,H.,0,1,1,3,,,,,0,1,1,3,,,,,,,,,,,,,,,,,,,,,,,,,,,,,,,None,242.94630489998963,None,242.94630489998963,None,242.94630489998963,None,250.03504869999597,251.03514420002466,None,250.03504869999597,251.03514420002466,,,,,,,,,001,2022_Oct_24_1816,FacesNamesProffessions_Encoding,2021.2.3,None,
18:24,48:54,encoding_name,2,Images_Faces/O50.jpg,Patrik,0,C.,P.,B.,0,1,1,3,,,,,0,2,2,1,,,,,,,,,,,,,,,,,,,,,,,,,,,,,,,None,254.20583869999973,None,254.20583869999973,None,254.20583869999973,None,261.30725730000995,262.32432890002383,None,261.30725730000995,262.32432890002383,,,,,,,,,001,2022_Oct_24_1816,FacesNamesProffessions_Encoding,2021.2.3,None,
18:24,48:54,encoding_name,2,Images_Faces/O51.jpg,Ingemar,0,T,I.,M.,0,1,1,3,,,,,0,3,3,2,,,,,,,,,,,,,,,,,,,,,,,,,,,,,,,None,265.47500700003,None,265.47500700003,None,265.47500700003,None,272.5807291000383,273.58116130001144,None,272.5807291000383,273.58116130001144,,,,,,,,,001,2022_Oct_24_1816,FacesNamesProffessions_Encoding,2021.2.3,None,
18:24,48:54,encoding_name,3,Images_Faces/O53.jpg,Christoffer,0,S.,H.,C.,0,1,1,3,,,,,0,4,4,4,,,,,,,,,,,,,,,,,,,,,,,,,,,,,,,None,276.7505945999874,None,276.7505945999874,None,276.7505945999874,None,283.852460300026,284.86804380000103,None,283.852460300026,284.86804380000103,,,,,,,,,001,2022_Oct_24_1816,FacesNamesProffessions_Encoding,2021.2.3,None,
18:24,48:54,encoding_name,3,Images_Faces/O54.jpg,Rickard,0,R.,J.,R.,0,1,1,3,,,,,0,5,5,5,,,,,,,,,,,,,,,,,,,,,,,,,,,,,,,None,288.02060869999696,None,288.02060869999696,None,288.02060869999696,None,295.1228497000411,296.1230348999961,None,295.1228497000411,296.1230348999961,,,,,,,,,001,2022_Oct_24_1816,FacesNamesProffessions_Encoding,2021.2.3,None,
18:24,48:54,,,,,,,,,0,1,1,3,,,,,,,,,,,,,,,,,,,,,,,,,,,,,,,,,,,,,,,,,,,,,,,,,,,,,,,,,,,001,2022_Oct_24_1816,FacesNamesProffessions_Encoding,2021.2.3,None,
12:18,42:48,encoding_name,3,Images_Faces/O43.jpg,David,0,B.,H.,D.,0,2,2,2,0,0,0,0,,,,,,,,,,,,,,,,,,,,,,,,,3.25,None,299.30895660002716,None,299.30895660002716,None,299.30895660002716,None,303.29148429998895,None,,,,,,,,,,,,,,,,,,,,,001,2022_Oct_24_1816,FacesNamesProffessions_Encoding,2021.2.3,None,
12:18,42:48,encoding_name,2,Images_Faces/O47.jpg,Niklas,0,R.,N.,E.,0,2,2,2,0,1,1,4,,,,,,,,,,,,,,,,,,,,,,,,,3.5,None,306.56324470002437,None,306.56324470002437,None,306.56324470002437,None,310.5438623999944,None,,,,,,,,,,,,,,,,,,,,,001,2022_Oct_24_1816,FacesNamesProffessions_Encoding,2021.2.3,None,
12:18,42:48,encoding_name,2,Images_Faces/O46.jpg,Emil,0,E.,E.,R.,0,2,2,2,0,2,2,3,,,,,,,,,,,,,,,,,,,,,,,,,8.75,None,314.0663002000074,None,314.0663002000074,None,314.0663002000074,None,318.0644883000059,None,,,,,,,,,,,,,,,,,,,,,001,2022_Oct_24_1816,FacesNamesProffessions_Encoding,2021.2.3,None,
12:18,42:48,encoding_name,2,Images_Faces/O45.jpg,Marcus,0,T.,M.,B.,0,2,2,2,0,3,3,2,,,,,,,,,,,,,,,,,,,,,,,,,4.0,None,326.8388288000133,None,326.8388288000133,None,326.8388288000133,None,330.8366105000023,None,,,,,,,,,,,,,,,,,,,,,001,2022_Oct_24_1816,FacesNamesProffessions_Encoding,2021.2.3,None,
12:18,42:48,encoding_name,2,Images_Faces/O48.jpg,Bertil,0,S.,B.,A.,0,2,2,2,0,4,4,5,,,,,,,,,,,,,,,,,,,,,,,,,3.75,None,334.8638187000179,None,334.8638187000179,None,334.8638187000179,None,338.8571790000424,None,,,,,,,,,,,,,,,,,,,,,001,2022_Oct_24_1816,FacesNamesProffessions_Encoding,2021.2.3,None,
12:18,42:48,encoding_name,1,Images_Faces/O44.jpg,Viktor,0,V.,C.,F.,0,2,2,2,0,5,5,1,,,,,,,,,,,,,,,,,,,,,,,,,3.5,None,342.6307375000324,None,342.6307375000324,None,342.6307375000324,None,346.6281028999947,None,,,,,,,,,,,,,,,,,,,,,001,2022_Oct_24_1816,FacesNamesProffessions_Encoding,2021.2.3,None,
12:18,42:48,encoding_name,2,Images_Faces/O45.jpg,Marcus,0,T.,M.,B.,0,2,2,2,,,,,0,0,0,2,,,,,,,,,,,,,,,,,,,,,,,,,,,,,,,None,350.16695159999654,None,350.16695159999654,None,350.16695159999654,None,355.3679836000083,356.3696676000254,None,355.3679836000083,356.3696676000254,,,,,,,,,001,2022_Oct_24_1816,FacesNamesProffessions_Encoding,2021.2.3,None,
12:18,42:48,encoding_name,1,Images_Faces/O44.jpg,Viktor,0,V.,C.,F.,0,2,2,2,,,,,0,1,1,1,,,,,,,,,,,,,,,,,,,,,,,,,,,,,,,None,357.6698495000019,None,357.6698495000019,None,357.6698495000019,None,362.887984400033,363.8889477000339,None,362.887984400033,363.8889477000339,,,,,,,,,001,2022_Oct_24_1816,FacesNamesProffessions_Encoding,2021.2.3,None,
12:18,42:48,encoding_name,2,Images_Faces/O46.jpg,Emil,0,E.,E.,R.,0,2,2,2,,,,,0,2,2,3,,,,,,,,,,,,,,,,,,,,,,,,,,,,,,,None,365.19075650000013,None,365.19075650000013,None,365.19075650000013,None,370.42225930001587,371.42554359999485,None,370.42225930001587,371.42554359999485,,,,,,,,,001,2022_Oct_24_1816,FacesNamesProffessions_Encoding,2021.2.3,None,
12:18,42:48,encoding_name,2,Images_Faces/O48.jpg,Bertil,0,S.,B.,A.,0,2,2,2,,,,,0,3,3,5,,,,,,,,,,,,,,,,,,,,,,,,,,,,,,,1,372.71033150004223,None,372.71033150004223,None,372.71033150004223,None,377.9418285000138,378.94628860004013,None,377.9418285000138,378.94628860004013,1.6226673999917693,,,,,,,,001,2022_Oct_24_1816,FacesNamesProffessions_Encoding,2021.2.3,None,
12:18,42:48,encoding_name,3,Images_Faces/O43.jpg,David,0,B.,H.,D.,0,2,2,2,,,,,0,4,4,0,,,,,,,,,,,,,,,,,,,,,,,,,,,,,,,2,380.23154050001176,None,380.23154050001176,None,380.23154050001176,None,385.45001890003914,386.4499761000043,3,385.45001890003914,386.4499761000043,0.745705800014548,0.6718589999945834,,,,,,,001,2022_Oct_24_1816,FacesNamesProffessions_Encoding,2021.2.3,None,
12:18,42:48,encoding_name,2,Images_Faces/O47.jpg,Niklas,0,R.,N.,E.,0,2,2,2,,,,,0,5,5,4,,,,,,,,,,,,,,,,,,,,,,,,,,,,,,,1,387.75391470000613,None,387.75391470000613,None,387.75391470000613,None,392.9765715000103,393.986006000021,None,392.9765715000103,393.986006000021,0.9708529000054114,,,,,,,,001,2022_Oct_24_1816,FacesNamesProffessions_Encoding,2021.2.3,None,
12:18,42:48,,,,,,,,,0,2,2,2,,,,,,,,,,,,,,,,,,,,,,,,,,,,,,,,,,,,,,,,,,,,,,,,,,,,,,,,,,,001,2022_Oct_24_1816,FacesNamesProffessions_Encoding,2021.2.3,None,
0:6,30:36,encoding_name,3,Images_Faces/O35.jpg,Henrik,0,B.,K.,H.,0,3,3,0,0,0,0,4,,,,,,,,,,,,,,,,,,,,,,,,,9.75,None,395.28773020004155,None,395.28773020004155,None,395.28773020004155,None,399.2689228000236,None,,,,,,,,,,,,,,,,,,,,,001,2022_Oct_24_1816,FacesNamesProffessions_Encoding,2021.2.3,None,
0:6,30:36,encoding_name,3,Images_Faces/O31.jpg,Filip,0,P.,V.,F.,0,3,3,0,0,1,1,0,,,,,,,,,,,,,,,,,,,,,,,,,4.25,None,409.04364960000385,None,409.04364960000385,None,409.04364960000385,None,413.0417219999945,None,,,,,,,,,,,,,,,,,,,,,001,2022_Oct_24_1816,FacesNamesProffessions_Encoding,2021.2.3,None,
0:6,30:36,encoding_name,3,Images_Faces/O33.jpg,Mattias,0,T,E.,M.,0,3,3,0,0,2,2,2,,,,,,,,,,,,,,,,,,,,,,,,,8.25,None,417.31430790002923,None,417.31430790002923,None,417.31430790002923,None,421.3123813000275,None,,,,,,,,,,,,,,,,,,,,,001,2022_Oct_24_1816,FacesNamesProffessions_Encoding,2021.2.3,None,
0:6,30:36,encoding_name,3,Images_Faces/O36.jpg,Jonas,0,S.,K.,J.,0,3,3,0,0,3,3,5,,,,,,,,,,,,,,,,,,,,,,,,,2.5,None,429.58716840000125,None,429.58716840000125,None,429.58716840000125,None,433.58480260003125,None,,,,,,,,,,,,,,,,,,,,,001,2022_Oct_24_1816,FacesNamesProffessions_Encoding,2021.2.3,None,
0:6,30:36,encoding_name,1,Images_Faces/O34.jpg,Mats,0,M.,B.,R.,0,3,3,0,0,4,4,3,,,,,,,,,,,,,,,,,,,,,,,,,8.75,None,436.10662070004037,None,436.10662070004037,None,436.10662070004037,None,440.1077546000015,None,,,,,,,,,,,,,,,,,,,,,001,2022_Oct_24_1816,FacesNamesProffessions_Encoding,2021.2.3,None,
0:6,30:36,encoding_name,3,Images_Faces/O32.jpg,John,0,O.,I.,J.,0,3,3,0,0,5,5,1,,,,,,,,,,,,,,,,,,,,,,,,,9.5,1,448.8790687000146,None,448.8790687000146,None,448.8790687000146,None,452.8770230000373,None,,,,,,,,,,,,,,,2.9755919000017457,,,,,,001,2022_Oct_24_1816,FacesNamesProffessions_Encoding,2021.2.3,None,
0:6,30:36,encoding_name,3,Images_Faces/O31.jpg,Filip,0,P.,V.,F.,0,3,3,0,,,,,0,0,0,0,,,,,,,,,,,,,,,,,,,,,,,,,,,,,,,2,462.4191604999942,None,462.4191604999942,None,462.4191604999942,None,470.6212572000222,471.6220014000428,None,470.6212572000222,471.6220014000428,0.836855600005947,,,,,,,,001,2022_Oct_24_1816,FacesNamesProffessions_Encoding,2021.2.3,None,
0:6,30:36,encoding_name,3,Images_Faces/O35.jpg,Henrik,0,B.,K.,H.,0,3,3,0,,,,,0,1,1,4,,,,,,,,,,,,,,,,,,,,,,,,,,,,,,,1,475.9250020000036,None,475.9250020000036,None,475.9250020000036,None,484.1293068000232,485.12956760003,1,484.1293068000232,485.12956760003,1.1341141000157222,0.2477861000224948,,,,,,,001,2022_Oct_24_1816,FacesNamesProffessions_Encoding,2021.2.3,None,
0:6,30:36,encoding_name,1,Images_Faces/O34.jpg,Mats,0,M.,B.,R.,0,3,3,0,,,,,0,2,2,3,,,,,,,,,,,,,,,,,,,,,,,,,,,,,,,None,489.4328567000339,None,489.4328567000339,None,489.4328567000339,None,497.6512915000203,498.65156750002643,None,497.6512915000203,498.65156750002643,,,,,,,,,001,2022_Oct_24_1816,FacesNamesProffessions_Encoding,2021.2.3,None,
0:6,30:36,encoding_name,3,Images_Faces/O33.jpg,Mattias,0,T,E.,M.,0,3,3,0,,,,,0,3,3,2,,,,,,,,,,,,,,,,,,,,,,,,,,,,,,,None,502.9545027000131,None,502.9545027000131,None,502.9545027000131,None,511.1750188000151,512.1740182000212,None,511.1750188000151,512.1740182000212,,,,,,,,,001,2022_Oct_24_1816,FacesNamesProffessions_Encoding,2021.2.3,None,
0:6,30:36,encoding_name,3,Images_Faces/O32.jpg,John,0,O.,I.,J.,0,3,3,0,,,,,0,4,4,1,,,,,,,,,,,,,,,,,,,,,,,,,,,,,,,None,516.4578713999945,None,516.4578713999945,None,516.4578713999945,None,524.6800707000075,525.680033200013,None,524.6800707000075,525.680033200013,,,,,,,,,001,2022_Oct_24_1816,FacesNamesProffessions_Encoding,2021.2.3,None,
0:6,30:36,encoding_name,3,Images_Faces/O36.jpg,Jonas,0,S.,K.,J.,0,3,3,0,,,,,0,5,5,5,,,,,,,,,,,,,,,,,,,,,,,,,,,,,,,None,529.966896900034,None,529.966896900034,None,529.966896900034,None,538.1865427999874,539.1869288000162,None,538.1865427999874,539.1869288000162,,,,,,,,,001,2022_Oct_24_1816,FacesNamesProffessions_Encoding,2021.2.3,None,
0:6,30:36,,,,,,,,,0,3,3,0,,,,,,,,,,,,,,,,,,,,,,,,,,,,,,,,,,,,,,,,,,,,,,,,,,,,,,,,,,,001,2022_Oct_24_1816,FacesNamesProffessions_Encoding,2021.2.3,None,
24:30,54:60,encoding_name,1,Images_Faces/O58.jpg,Stig,0,S.,F.,O.,0,4,4,4,0,0,0,3,,,,,,,,,,,,,,,,,,,,,,,,,7.75,None,543.5034249000018,None,543.5034249000018,None,543.5034249000018,None,547.4876786000095,None,,,,,,,,,,,,,,,,,,,,,001,2022_Oct_24_1816,FacesNamesProffessions_Encoding,2021.2.3,None,
24:30,54:60,encoding_name,1,Images_Faces/O56.jpg,William,0,W.,J.,I.,0,4,4,4,0,1,1,1,,,,,,,,,,,,,,,,,,,,,,,,,5.25,None,555.2593390000402,None,555.2593390000402,None,555.2593390000402,None,559.2596747000352,None,,,,,,,,,,,,,,,,,,,,,001,2022_Oct_24_1816,FacesNamesProffessions_Encoding,2021.2.3,None,
24:30,54:60,encoding_name,3,Images_Faces/O60.jpg,Wilhelm,0,S.,M.,W.,0,4,4,4,0,2,2,5,,,,,,,,,,,,,,,,,,,,,,,,,6.25,None,564.533139600011,None,564.533139600011,None,564.533139600011,None,568.5310214000056,None,,,,,,,,,,,,,,,,,,,,,001,2022_Oct_24_1816,FacesNamesProffessions_Encoding,2021.2.3,None,
24:30,54:60,encoding_name,2,Images_Faces/O57.jpg,Joakim,0,A.,J.,S.,0,4,4,4,0,3,3,2,,,,,,,,,,,,,,,,,,,,,,,,,7.5,None,574.804115100007,None,574.804115100007,None,574.804115100007,None,578.8024733000202,None,,,,,,,,,,,,,,,,,,,,,001,2022_Oct_24_1816,FacesNamesProffessions_Encoding,2021.2.3,None,
24:30,54:60,encoding_name,3,Images_Faces/O55.jpg,Kjell,0,L.,N.,K.,0,4,4,4,0,4,4,0,,,,,,,,,,,,,,,,,,,,,,,,,3.25,None,586.326157100033,None,586.326157100033,None,586.326157100033,None,590.3252941000392,None,,,,,,,,,,,,,,,,,,,,,001,2022_Oct_24_1816,FacesNamesProffessions_Encoding,2021.2.3,None,
24:30,54:60,encoding_name,3,Images_Faces/O59.jpg,Rolf,0,A.,I.,R.,0,4,4,4,0,5,5,4,,,,,,,,,,,,,,,,,,,,,,,,,9.75,None,593.5966994999908,None,593.5966994999908,None,593.5966994999908,None,597.5945213999948,None,,,,,,,,,,,,,,,,,,,,,001,2022_Oct_24_1816,FacesNamesProffessions_Encoding,2021.2.3,None,
24:30,54:60,encoding_name,1,Images_Faces/O56.jpg,William,0,W.,J.,I.,0,4,4,4,,,,,0,0,0,1,,,,,,,,,,,,,,,,,,,,,,,,,,,,,,,None,607.3829399000388,None,607.3829399000388,None,607.3829399000388,None,615.705303900002,616.7059087000089,None,615.705303900002,616.7059087000089,,,,,,,,,001,2022_Oct_24_1816,FacesNamesProffessions_Encoding,2021.2.3,None,
24:30,54:60,encoding_name,1,Images_Faces/O58.jpg,Stig,0,S.,F.,O.,0,4,4,4,,,,,0,1,1,3,,,,,,,,,,,,,,,,,,,,,,,,,,,,,,,None,621.1259673000313,None,621.1259673000313,None,621.1259673000313,None,629.4788506000186,630.480698600004,None,629.4788506000186,630.480698600004,,,,,,,,,001,2022_Oct_24_1816,FacesNamesProffessions_Encoding,2021.2.3,None,
24:30,54:60,encoding_name,3,Images_Faces/O59.jpg,Rolf,0,A.,I.,R.,0,4,4,4,,,,,0,2,2,4,,,,,,,,,,,,,,,,,,,,,,,,,,,,,,,None,634.8992251000018,None,634.8992251000018,None,634.8992251000018,None,643.253509400005,644.2681257000077,None,643.253509400005,644.2681257000077,,,,,,,,,001,2022_Oct_24_1816,FacesNamesProffessions_Encoding,2021.2.3,None,
24:30,54:60,encoding_name,3,Images_Faces/O55.jpg,Kjell,0,L.,N.,K.,0,4,4,4,,,,,0,3,3,0,,,,,,,,,,,,,,,,,,,,,,,,,,,,,,,None,648.6730817999924,None,648.6730817999924,None,648.6730817999924,None,657.0261658999952,658.0269705000101,None,657.0261658999952,658.0269705000101,,,,,,,,,001,2022_Oct_24_1816,FacesNamesProffessions_Encoding,2021.2.3,None,
24:30,54:60,encoding_name,3,Images_Faces/O60.jpg,Wilhelm,0,S.,M.,W.,0,4,4,4,,,,,0,4,4,5,,,,,,,,,,,,,,,,,,,,,,,,,,,,,,,1,662.4491844000295,None,662.4491844000295,None,662.4491844000295,None,670.7995591000072,671.7983695000294,None,670.7995591000072,671.7983695000294,0.5452331000124104,,,,,,,,001,2022_Oct_24_1816,FacesNamesProffessions_Encoding,2021.2.3,None,
24:30,54:60,encoding_name,2,Images_Faces/O57.jpg,Joakim,0,A.,J.,S.,0,4,4,4,,,,,0,5,5,2,,,,,,,,,,,,,,,,,,,,,,,,,,,,,,,1,676.2182700000121,None,676.2182700000121,None,676.2182700000121,None,684.5688791000284,685.5722337000188,None,684.5688791000284,685.5722337000188,1.105157399957534,,,,,,,,001,2022_Oct_24_1816,FacesNamesProffessions_Encoding,2021.2.3,None,
24:30,54:60,,,,,,,,,0,4,4,4,,,,,,,,,,,,,,,,,,,,,,,,,,,,,,,,,,,,,,,,,,,,,,,,,,,,,,,,,,,001,2022_Oct_24_1816,FacesNamesProffessions_Encoding,2021.2.3,None,
12:18,42:48,encoding_proffession,1,Images_Faces/SH48.png,0,Jurist,J.,F.,S.,,,,,,,,,,,,,0,0,0,2,0,0,0,5,,,,,,,,,,,,,8.5,None,697.011269700015,None,697.011269700015,None,697.011269700015,None,700.9929599000025,None,,,,,,,,,,,,,,,,689.9735683000181,694.9758084000205,694.9619178000139,None,,001,2022_Oct_24_1816,FacesNamesProffessions_Encoding,2021.2.3,None,
12:18,42:48,encoding_proffession,3,Images_Faces/SH45.png,0,Vetrinär,R.,M.,V.,,,,,,,,,,,,,0,0,0,2,0,1,1,2,,,,,,,,,,,,,5.5,None,709.5168256000034,None,709.5168256000034,None,709.5168256000034,None,713.514848700026,None,,,,,,,,,,,,,,,,,,,,,001,2022_Oct_24_1816,FacesNamesProffessions_Encoding,2021.2.3,None,
12:18,42:48,encoding_proffession,3,Images_Faces/SH43.png,0,Arbetsledare,L.,K.,A.,,,,,,,,,,,,,0,0,0,2,0,2,2,0,,,,,,,,,,,,,8.0,None,719.0436528000282,None,719.0436528000282,None,719.0436528000282,None,723.0365662000258,None,,,,,,,,,,,,,,,,,,,,,001,2022_Oct_24_1816,FacesNamesProffessions_Encoding,2021.2.3,None,
12:18,42:48,encoding_proffession,3,Images_Faces/SH46.png,0,Inköpare,R.,H.,I.,,,,,,,,,,,,,0,0,0,2,0,3,3,3,,,,,,,,,,,,,7.5,None,731.0618665000075,None,731.0618665000075,None,731.0618665000075,None,735.060923400044,None,,,,,,,,,,,,,,,,,,,,,001,2022_Oct_24_1816,FacesNamesProffessions_Encoding,2021.2.3,None,
12:18,42:48,encoding_proffession,1,Images_Faces/SH47.png,0,Plåtslagare,P.,K.,B.,,,,,,,,,,,,,0,0,0,2,0,4,4,4,,,,,,,,,,,,,3.5,None,742.5822559000226,None,742.5822559000226,None,742.5822559000226,None,746.5666058000061,None,,,,,,,,,,,,,,,,,,,,,001,2022_Oct_24_1816,FacesNamesProffessions_Encoding,2021.2.3,None,
12:18,42:48,encoding_proffession,1,Images_Faces/SH44.png,0,Försäkringsrådgivare,F.,T.,A.,,,,,,,,,,,,,0,0,0,2,0,5,5,1,,,,,,,,,,,,,6.75,None,750.1052339000162,None,750.1052339000162,None,750.1052339000162,None,754.0841835000319,None,,,,,,,,,,,,,,,,,,,,,001,2022_Oct_24_1816,FacesNamesProffessions_Encoding,2021.2.3,None,
12:18,42:48,encoding_proffession,1,Images_Faces/SH47.png,0,Plåtslagare,P.,K.,B.,,,,,,,,,,,,,0,0,0,2,,,,,0,0,0,4,,,,,,,,,,,,,,,,,,,None,760.8743544000317,None,760.8743544000317,None,760.8743544000317,None,767.7111883999896,768.7267660000362,None,767.7111883999896,768.7267660000362,,,,,,,,,001,2022_Oct_24_1816,FacesNamesProffessions_Encoding,2021.2.3,None,
12:18,42:48,encoding_proffession,3,Images_Faces/SH46.png,0,Inköpare,R.,H.,I.,,,,,,,,,,,,,0,0,0,2,,,,,0,1,1,3,,,,,,,,,,,,,,,,,,,None,771.6297739000292,None,771.6297739000292,None,771.6297739000292,None,778.4832934000297,779.4987869000179,None,778.4832934000297,779.4987869000179,,,,,,,,,001,2022_Oct_24_1816,FacesNamesProffessions_Encoding,2021.2.3,None,
12:18,42:48,encoding_proffession,3,Images_Faces/SH43.png,0,Arbetsledare,L.,K.,A.,,,,,,,,,,,,,0,0,0,2,,,,,0,2,2,0,,,,,,,,,,,,,,,,,,,None,782.4021766000078,None,782.4021766000078,None,782.4021766000078,None,789.254969600006,790.2549467000063,None,789.254969600006,790.2549467000063,,,,,,,,,001,2022_Oct_24_1816,FacesNamesProffessions_Encoding,2021.2.3,None,
12:18,42:48,encoding_proffession,1,Images_Faces/SH44.png,0,Försäkringsrådgivare,F.,T.,A.,,,,,,,,,,,,,0,0,0,2,,,,,0,3,3,1,,,,,,,,,,,,,,,,,,,None,793.1736216000281,None,793.1736216000281,None,793.1736216000281,None,800.0250060000108,801.0252674000221,None,800.0250060000108,801.0252674000221,,,,,,,,,001,2022_Oct_24_1816,FacesNamesProffessions_Encoding,2021.2.3,None,
12:18,42:48,encoding_proffession,3,Images_Faces/SH45.png,0,Vetrinär,R.,M.,V.,,,,,,,,,,,,,0,0,0,2,,,,,0,4,4,2,,,,,,,,,,,,,,,,,,,None,803.9444085000432,None,803.9444085000432,None,803.9444085000432,None,810.7969233000185,811.7972400000435,None,810.7969233000185,811.7972400000435,,,,,,,,,001,2022_Oct_24_1816,FacesNamesProffessions_Encoding,2021.2.3,None,
12:18,42:48,encoding_proffession,1,Images_Faces/SH48.png,0,Jurist,J.,F.,S.,,,,,,,,,,,,,0,0,0,2,,,,,0,5,5,5,,,,,,,,,,,,,,,,,,,None,814.715603300021,None,814.715603300021,None,814.715603300021,None,821.5702569000423,822.5691086000297,None,821.5702569000423,822.5691086000297,,,,,,,,,001,2022_Oct_24_1816,FacesNamesProffessions_Encoding,2021.2.3,None,
12:18,42:48,,,,,,,,,,,,,,,,,,,,,0,0,0,2,,,,,,,,,,,,,,,,,,,,,,,,,,,,,,,,,,,,,,,,,,,,,,,001,2022_Oct_24_1816,FacesNamesProffessions_Encoding,2021.2.3,None,
24:30,54:60,encoding_proffession,3,Images_Faces/SH57.png,0,Bonde,W.,Å.,B.,,,,,,,,,,,,,0,1,1,4,0,0,0,2,,,,,,,,,,,,,9.5,None,825.5043733000057,None,825.5043733000057,None,825.5043733000057,None,829.4867551000207,None,,,,,,,,,,,,,,,,,,,,,001,2022_Oct_24_1816,FacesNamesProffessions_Encoding,2021.2.3,None,
24:30,54:60,encoding_proffession,1,Images_Faces/SH59.png,0,Körskollärare,K.,O.,W.,,,,,,,,,,,,,0,1,1,4,0,1,1,4,,,,,,,,,,,,,6.75,None,839.0106104000006,None,839.0106104000006,None,839.0106104000006,None,842.995476000011,None,,,,,,,,,,,,,,,,,,,,,001,2022_Oct_24_1816,FacesNamesProffessions_Encoding,2021.2.3,None,
24:30,54:60,encoding_proffession,2,Images_Faces/SH56.png,0,Gruvarbetare,M.,G.,C.,,,,,,,,,,,,,0,1,1,4,0,2,2,1,,,,,,,,,,,,,7.5,None,849.7647023000172,None,849.7647023000172,None,849.7647023000172,None,853.7648346000351,None,,,,,,,,,,,,,,,,,,,,,001,2022_Oct_24_1816,FacesNamesProffessions_Encoding,2021.2.3,None,
24:30,54:60,encoding_proffession,2,Images_Faces/SH60.png,0,Polis,J.,P.,I.,,,,,,,,,,,,,0,1,1,4,0,3,3,5,,,,,,,,,,,,,3.25,None,861.2880270000314,None,861.2880270000314,None,861.2880270000314,None,865.2862030999968,None,,,,,,,,,,,,,,,,,,,,,001,2022_Oct_24_1816,FacesNamesProffessions_Encoding,2021.2.3,None,
24:30,54:60,encoding_proffession,3,Images_Faces/SH55.png,0,Apotekare,W.,F.,A.,,,,,,,,,,,,,0,1,1,4,0,4,4,0,,,,,,,,,,,,,5.5,None,868.5582811000058,None,868.5582811000058,None,868.5582811000058,None,872.542880300025,None,,,,,,,,,,,,,,,,,,,,,001,2022_Oct_24_1816,FacesNamesProffessions_Encoding,2021.2.3,None,
24:30,54:60,encoding_proffession,1,Images_Faces/SH58.png,0,Undersköterska,U.,E.,B.,,,,,,,,,,,,,0,1,1,4,0,5,5,3,,,,,,,,,,,,,6.25,None,878.0624137000414,None,878.0624137000414,None,878.0624137000414,None,882.047700199997,None,,,,,,,,,,,,,,,,,,,,,001,2022_Oct_24_1816,FacesNamesProffessions_Encoding,2021.2.3,None,
24:30,54:60,encoding_proffession,3,Images_Faces/SH55.png,0,Apotekare,W.,F.,A.,,,,,,,,,,,,,0,1,1,4,,,,,0,0,0,0,,,,,,,,,,,,,,,,,,,None,888.3331575000193,None,888.3331575000193,None,888.3331575000193,None,894.9039393000421,895.9041493000113,None,894.9039393000421,895.9041493000113,,,,,,,,,001,2022_Oct_24_1816,FacesNamesProffessions_Encoding,2021.2.3,None,
24:30,54:60,encoding_proffession,1,Images_Faces/SH58.png,0,Undersköterska,U.,E.,B.,,,,,,,,,,,,,0,1,1,4,,,,,0,1,1,3,,,,,,,,,,,,,,,,,,,None,898.5886134000029,None,898.5886134000029,None,898.5886134000029,None,905.175096800027,906.1761206000228,None,905.175096800027,906.1761206000228,,,,,,,,,001,2022_Oct_24_1816,FacesNamesProffessions_Encoding,2021.2.3,None,
24:30,54:60,encoding_proffession,2,Images_Faces/SH56.png,0,Gruvarbetare,M.,G.,C.,,,,,,,,,,,,,0,1,1,4,,,,,0,2,2,1,,,,,,,,,,,,,,,,,,,None,908.843202100019,None,908.843202100019,None,908.843202100019,None,915.4298708999995,916.4473196000326,None,915.4298708999995,916.4473196000326,,,,,,,,,001,2022_Oct_24_1816,FacesNamesProffessions_Encoding,2021.2.3,None,
24:30,54:60,encoding_proffession,3,Images_Faces/SH57.png,0,Bonde,W.,Å.,B.,,,,,,,,,,,,,0,1,1,4,,,,,0,3,3,2,,,,,,,,,,,,,,,,,,,None,919.0973838000209,None,919.0973838000209,None,919.0973838000209,None,925.6840412000311,926.6837146999897,None,925.6840412000311,926.6837146999897,,,,,,,,,001,2022_Oct_24_1816,FacesNamesProffessions_Encoding,2021.2.3,None,
24:30,54:60,encoding_proffession,1,Images_Faces/SH59.png,0,Körskollärare,K.,O.,W.,,,,,,,,,,,,,0,1,1,4,,,,,0,4,4,4,,,,,,,,,,,,,,,,,,,None,929.3532981000026,None,929.3532981000026,None,929.3532981000026,None,935.95533050003,936.9564438000089,None,935.95533050003,936.9564438000089,,,,,,,,,001,2022_Oct_24_1816,FacesNamesProffessions_Encoding,2021.2.3,None,
24:30,54:60,encoding_proffession,2,Images_Faces/SH60.png,0,Polis,J.,P.,I.,,,,,,,,,,,,,0,1,1,4,,,,,0,5,5,5,,,,,,,,,,,,,,,,,,,None,939.6252991000074,None,939.6252991000074,None,939.6252991000074,None,946.2283857000293,947.2266821000376,None,946.2283857000293,947.2266821000376,,,,,,,,,001,2022_Oct_24_1816,FacesNamesProffessions_Encoding,2021.2.3,None,
24:30,54:60,,,,,,,,,,,,,,,,,,,,,0,1,1,4,,,,,,,,,,,,,,,,,,,,,,,,,,,,,,,,,,,,,,,,,,,,,,,001,2022_Oct_24_1816,FacesNamesProffessions_Encoding,2021.2.3,None,
6:12,36:42,encoding_proffession,1,Images_Faces/SH39.png,0,Rektor,R.,H.,M.,,,,,,,,,,,,,0,2,2,1,0,0,0,2,,,,,,,,,,,,,7.75,None,949.9298424000153,None,949.9298424000153,None,949.9298424000153,None,953.8802584999939,None,,,,,,,,,,,,,,,,,,,,,001,2022_Oct_24_1816,FacesNamesProffessions_Encoding,2021.2.3,None,
6:12,36:42,encoding_proffession,2,Images_Faces/SH38.png,0,Maskinoperatör,B.,M.,A.,,,,,,,,,,,,,0,2,2,1,0,1,1,1,,,,,,,,,,,,,4.5,None,961.6515820000204,None,961.6515820000204,None,961.6515820000204,None,965.6496200000402,None,,,,,,,,,,,,,,,,,,,,,001,2022_Oct_24_1816,FacesNamesProffessions_Encoding,2021.2.3,None,
6:12,36:42,encoding_proffession,3,Images_Faces/SH37.png,0,Brevbärare,Å.,C.,B.,,,,,,,,,,,,,0,2,2,1,0,2,2,0,,,,,,,,,,,,,5.5,None,970.1718752000015,None,970.1718752000015,None,970.1718752000015,None,974.1699856999912,None,,,,,,,,,,,,,,,,,,,,,001,2022_Oct_24_1816,FacesNamesProffessions_Encoding,2021.2.3,None,
6:12,36:42,encoding_proffession,1,Images_Faces/SH42.png,0,Tandläkare,T.,B.,I.,,,,,,,,,,,,,0,2,2,1,0,3,3,5,,,,,,,,,,,,,7.25,None,979.6935322000063,None,979.6935322000063,None,979.6935322000063,None,983.6772739000153,None,,,,,,,,,,,,,,,,,,,,,001,2022_Oct_24_1816,FacesNamesProffessions_Encoding,2021.2.3,None,
6:12,36:42,encoding_proffession,1,Images_Faces/SH40.png,0,Proffessor,P.,J.,N.,,,,,,,,,,,,,0,2,2,1,0,4,4,3,,,,,,,,,,,,,2.75,None,990.949800500006,None,990.949800500006,None,990.949800500006,None,994.9334312000428,None,,,,,,,,,,,,,,,,,,,,,001,2022_Oct_24_1816,FacesNamesProffessions_Encoding,2021.2.3,None,
6:12,36:42,encoding_proffession,2,Images_Faces/SH41.png,0,Säkerhetsvakt,P.,S.,J.,,,,,,,,,,,,,0,2,2,1,0,5,5,4,,,,,,,,,,,,,8.75,None,997.7005997000379,None,997.7005997000379,None,997.7005997000379,None,1001.6992755000247,None,,,,,,,,,,,,,,,,,,,,,001,2022_Oct_24_1816,FacesNamesProffessions_Encoding,2021.2.3,None,
6:12,36:42,encoding_proffession,2,Images_Faces/SH41.png,0,Säkerhetsvakt,P.,S.,J.,,,,,,,,,,,,,0,2,2,1,,,,,0,0,0,4,,,,,,,,,,,,,,,,,,,None,1010.5066246000351,None,1010.5066246000351,None,1010.5066246000351,None,1018.32931250002,1019.3440933999955,None,1018.32931250002,1019.3440933999955,,,,,,,,,001,2022_Oct_24_1816,FacesNamesProffessions_Encoding,2021.2.3,None,
6:12,36:42,encoding_proffession,1,Images_Faces/SH39.png,0,Rektor,R.,H.,M.,,,,,,,,,,,,,0,2,2,1,,,,,0,1,1,2,,,,,,,,,,,,,,,,,,,None,1023.2474823000375,None,1023.2474823000375,None,1023.2474823000375,None,1031.1006270000362,1032.1010973000084,None,1031.1006270000362,1032.1010973000084,,,,,,,,,001,2022_Oct_24_1816,FacesNamesProffessions_Encoding,2021.2.3,None,
6:12,36:42,encoding_proffession,1,Images_Faces/SH42.png,0,Tandläkare,T.,B.,I.,,,,,,,,,,,,,0,2,2,1,,,,,0,2,2,5,,,,,,,,,,,,,,,,,,,None,1036.0206036000163,None,1036.0206036000163,None,1036.0206036000163,None,1043.8734104000032,1044.872753500007,None,1043.8734104000032,1044.872753500007,,,,,,,,,001,2022_Oct_24_1816,FacesNamesProffessions_Encoding,2021.2.3,None,
6:12,36:42,encoding_proffession,3,Images_Faces/SH37.png,0,Brevbärare,Å.,C.,B.,,,,,,,,,,,,,0,2,2,1,,,,,0,3,3,0,,,,,,,,,,,,,,,,,,,None,1048.791761600005,None,1048.791761600005,None,1048.791761600005,None,1056.6446349000325,1057.6451236000285,None,1056.6446349000325,1057.6451236000285,,,,,,,,,001,2022_Oct_24_1816,FacesNamesProffessions_Encoding,2021.2.3,None,
6:12,36:42,encoding_proffession,2,Images_Faces/SH38.png,0,Maskinoperatör,B.,M.,A.,,,,,,,,,,,,,0,2,2,1,,,,,0,4,4,1,,,,,,,,,,,,,,,,,,,None,1061.5643115999992,None,1061.5643115999992,None,1061.5643115999992,None,1069.4170234000194,1070.417886900017,None,1069.4170234000194,1070.417886900017,,,,,,,,,001,2022_Oct_24_1816,FacesNamesProffessions_Encoding,2021.2.3,None,
6:12,36:42,encoding_proffession,1,Images_Faces/SH40.png,0,Proffessor,P.,J.,N.,,,,,,,,,,,,,0,2,2,1,,,,,0,5,5,3,,,,,,,,,,,,,,,,,,,None,1074.3369378999923,None,1074.3369378999923,None,1074.3369378999923,None,1082.1869524000213,1083.187931100023,None,1082.1869524000213,1083.187931100023,,,,,,,,,001,2022_Oct_24_1816,FacesNamesProffessions_Encoding,2021.2.3,None,
6:12,36:42,,,,,,,,,,,,,,,,,,,,,0,2,2,1,,,,,,,,,,,,,,,,,,,,,,,,,,,,,,,,,,,,,,,,,,,,,,,001,2022_Oct_24_1816,FacesNamesProffessions_Encoding,2021.2.3,None,
18:24,48:54,encoding_proffession,2,Images_Faces/SH53.png,0,Lastbilschaufför,G.,L.,U.,,,,,,,,,,,,,0,3,3,3,0,0,0,4,,,,,,,,,,,,,6.0,None,1087.143392900005,None,1087.143392900005,None,1087.143392900005,None,1091.1106289000018,None,,,,,,,,,,,,,,,,,,,,,001,2022_Oct_24_1816,FacesNamesProffessions_Encoding,2021.2.3,None,
18:24,48:54,encoding_proffession,2,Images_Faces/SH52.png,0,Sjukgymnast,B.,S.,G.,,,,,,,,,,,,,0,3,3,3,0,1,1,3,,,,,,,,,,,,,4.0,None,1097.1479557999992,None,1097.1479557999992,None,1097.1479557999992,None,1101.1148419000092,None,,,,,,,,,,,,,,,,,,,,,001,2022_Oct_24_1816,FacesNamesProffessions_Encoding,2021.2.3,None,
18:24,48:54,encoding_proffession,2,Images_Faces/SH50.png,0,Bartender,L.,B.,S.,,,,,,,,,,,,,0,3,3,3,0,2,2,1,,,,,,,,,,,,,6.25,None,1105.1344743000227,None,1105.1344743000227,None,1105.1344743000227,None,1109.1331811000127,None,,,,,,,,,,,,,,,,,,,,,001,2022_Oct_24_1816,FacesNamesProffessions_Encoding,2021.2.3,None,
18:24,48:54,encoding_proffession,2,Images_Faces/SH51.png,0,Nätverkstekniker,D.,N.,P.,,,,,,,,,,,,,0,3,3,3,0,3,3,2,,,,,,,,,,,,,4.75,None,1115.4068428000319,None,1115.4068428000319,None,1115.4068428000319,None,1119.4055954000214,None,,,,,,,,,,,,,,,,,,,,,001,2022_Oct_24_1816,FacesNamesProffessions_Encoding,2021.2.3,None,
18:24,48:54,encoding_proffession,1,Images_Faces/SH49.png,0,Hovmästare,H.,S.,F.,,,,,,,,,,,,,0,3,3,3,0,4,4,0,,,,,,,,,,,,,8.25,None,1124.1774889000226,None,1124.1774889000226,None,1124.1774889000226,None,1128.1751509000314,None,,,,,,,,,,,,,,,,,,,,,001,2022_Oct_24_1816,FacesNamesProffessions_Encoding,2021.2.3,None,
18:24,48:54,encoding_proffession,3,Images_Faces/SH54.png,0,Trädgårdsmästare,S.,C.,T.,,,,,,,,,,,,,0,3,3,3,0,5,5,5,,,,,,,,,,,,,5.0,None,1136.449869700009,None,1136.449869700009,None,1136.449869700009,None,1140.4331752000144,None,,,,,,,,,,,,,,,,,,,,,001,2022_Oct_24_1816,FacesNamesProffessions_Encoding,2021.2.3,None,
18:24,48:54,encoding_proffession,2,Images_Faces/SH53.png,0,Lastbilschaufför,G.,L.,U.,,,,,,,,,,,,,0,3,3,3,,,,,0,0,0,4,,,,,,,,,,,,,,,,,,,None,1145.4713896000176,None,1145.4713896000176,None,1145.4713896000176,None,1151.4231949000387,1152.424101600016,None,1151.4231949000387,1152.424101600016,,,,,,,,,001,2022_Oct_24_1816,FacesNamesProffessions_Encoding,2021.2.3,None,
18:24,48:54,encoding_proffession,2,Images_Faces/SH52.png,0,Sjukgymnast,B.,S.,G.,,,,,,,,,,,,,0,3,3,3,,,,,0,1,1,3,,,,,,,,,,,,,,,,,,,None,1154.4751817000215,None,1154.4751817000215,None,1154.4751817000215,None,1160.4431931000436,1161.4443104999955,None,1160.4431931000436,1161.4443104999955,,,,,,,,,001,2022_Oct_24_1816,FacesNamesProffessions_Encoding,2021.2.3,None,
18:24,48:54,encoding_proffession,2,Images_Faces/SH50.png,0,Bartender,L.,B.,S.,,,,,,,,,,,,,0,3,3,3,,,,,0,2,2,1,,,,,,,,,,,,,,,,,,,None,1163.495440400031,None,1163.495440400031,None,1163.495440400031,None,1169.463921800023,1170.464510800026,None,1169.463921800023,1170.464510800026,,,,,,,,,001,2022_Oct_24_1816,FacesNamesProffessions_Encoding,2021.2.3,None,
18:24,48:54,encoding_proffession,1,Images_Faces/SH49.png,0,Hovmästare,H.,S.,F.,,,,,,,,,,,,,0,3,3,3,,,,,0,3,3,0,,,,,,,,,,,,,,,,,,,None,1172.5008959000115,None,1172.5008959000115,None,1172.5008959000115,None,1178.4855979999993,1179.4864132000366,None,1178.4855979999993,1179.4864132000366,,,,,,,,,001,2022_Oct_24_1816,FacesNamesProffessions_Encoding,2021.2.3,None,
18:24,48:54,encoding_proffession,2,Images_Faces/SH51.png,0,Nätverkstekniker,D.,N.,P.,,,,,,,,,,,,,0,3,3,3,,,,,0,4,4,2,,,,,,,,,,,,,,,,,,,None,1181.5205691000447,None,1181.5205691000447,None,1181.5205691000447,None,1187.4905725000426,1188.4904797000345,None,1187.4905725000426,1188.4904797000345,,,,,,,,,001,2022_Oct_24_1816,FacesNamesProffessions_Encoding,2021.2.3,None,
18:24,48:54,encoding_proffession,3,Images_Faces/SH54.png,0,Trädgårdsmästare,S.,C.,T.,,,,,,,,,,,,,0,3,3,3,,,,,0,5,5,5,,,,,,,,,,,,,,,,,,,None,1190.5426056000288,None,1190.5426056000288,None,1190.5426056000288,None,1196.5100735999877,1197.5100417000358,None,1196.5100735999877,1197.5100417000358,,,,,,,,,001,2022_Oct_24_1816,FacesNamesProffessions_Encoding,2021.2.3,None,
18:24,48:54,,,,,,,,,,,,,,,,,,,,,0,3,3,3,,,,,,,,,,,,,,,,,,,,,,,,,,,,,,,,,,,,,,,,,,,,,,,001,2022_Oct_24_1816,FacesNamesProffessions_Encoding,2021.2.3,None,
0:6,30:36,encoding_proffession,3,Images_Faces/SH31.png,0,Fastighetsskötare,E.,M.,F.,,,,,,,,,,,,,0,4,4,0,0,0,0,0,,,,,,,,,,,,,6.5,None,1199.595231000043,None,1199.595231000043,None,1199.595231000043,None,1203.5468102000304,None,,,,,,,,,,,,,,,,,,,,,001,2022_Oct_24_1816,FacesNamesProffessions_Encoding,2021.2.3,None,
0:6,30:36,encoding_proffession,3,Images_Faces/SH34.png,0,Marknadsförare,P.,S.,M.,,,,,,,,,,,,,0,4,4,0,0,1,1,3,,,,,,,,,,,,,6.25,None,1210.067265300022,None,1210.067265300022,None,1210.067265300022,None,1214.0523608000367,None,,,,,,,,,,,,,,,,,,,,,001,2022_Oct_24_1816,FacesNamesProffessions_Encoding,2021.2.3,None,
0:6,30:36,encoding_proffession,3,Images_Faces/SH36.png,0,VVS-montör,A.,G.,V.,,,,,,,,,,,,,0,4,4,0,0,2,2,5,,,,,,,,,,,,,6.75,None,1220.319047600031,None,1220.319047600031,None,1220.319047600031,None,1224.3200099000242,None,,,,,,,,,,,,,,,,,,,,,001,2022_Oct_24_1816,FacesNamesProffessions_Encoding,2021.2.3,None,
0:6,30:36,encoding_proffession,3,Images_Faces/SH35.png,0,Kock,L.,V.,K.,,,,,,,,,,,,,0,4,4,0,0,3,3,4,,,,,,,,,,,,,4.5,None,1231.0932693000068,None,1231.0932693000068,None,1231.0932693000068,None,1235.0919133000425,None,,,,,,,,,,,,,,,,,,,,,001,2022_Oct_24_1816,FacesNamesProffessions_Encoding,2021.2.3,None,
0:6,30:36,encoding_proffession,1,Images_Faces/SH33.png,0,Elektriker,E.,L.,S.,,,,,,,,,,,,,0,4,4,0,0,4,4,2,,,,,,,,,,,,,8.0,None,1239.6142686000094,None,1239.6142686000094,None,1239.6142686000094,None,1243.6160174999968,None,,,,,,,,,,,,,,,,,,,,,001,2022_Oct_24_1816,FacesNamesProffessions_Encoding,2021.2.3,None,
0:6,30:36,encoding_proffession,1,Images_Faces/SH32.png,0,Skattehandläggare,S.,M.,H.,,,,,,,,,,,,,0,4,4,0,0,5,5,1,,,,,,,,,,,,,8.75,None,1251.6368050000165,None,1251.6368050000165,None,1251.6368050000165,None,1255.634606000036,None,,,,,,,,,,,,,,,,,,,,,001,2022_Oct_24_1816,FacesNamesProffessions_Encoding,2021.2.3,None,
0:6,30:36,encoding_proffession,1,Images_Faces/SH32.png,0,Skattehandläggare,S.,M.,H.,,,,,,,,,,,,,0,4,4,0,,,,,0,0,0,1,,,,,,,,,,,,,,,,,,,None,1264.4260504000122,None,1264.4260504000122,None,1264.4260504000122,None,1272.2615762000205,1273.2624368999968,None,1272.2615762000205,1273.2624368999968,,,,,,,,,001,2022_Oct_24_1816,FacesNamesProffessions_Encoding,2021.2.3,None,
0:6,30:36,encoding_proffession,3,Images_Faces/SH31.png,0,Fastighetsskötare,E.,M.,F.,,,,,,,,,,,,,0,4,4,0,,,,,0,1,1,0,,,,,,,,,,,,,,,,,,,None,1277.1816090000211,None,1277.1816090000211,None,1277.1816090000211,None,1285.034651199996,1286.0351878000074,None,1285.034651199996,1286.0351878000074,,,,,,,,,001,2022_Oct_24_1816,FacesNamesProffessions_Encoding,2021.2.3,None,
0:6,30:36,encoding_proffession,3,Images_Faces/SH35.png,0,Kock,L.,V.,K.,,,,,,,,,,,,,0,4,4,0,,,,,0,2,2,4,,,,,,,,,,,,,,,,,,,None,1289.9541414999985,None,1289.9541414999985,None,1289.9541414999985,None,1297.8084097999963,1298.8089280000422,None,1297.8084097999963,1298.8089280000422,,,,,,,,,001,2022_Oct_24_1816,FacesNamesProffessions_Encoding,2021.2.3,None,
0:6,30:36,encoding_proffession,1,Images_Faces/SH33.png,0,Elektriker,E.,L.,S.,,,,,,,,,,,,,0,4,4,0,,,,,0,3,3,2,,,,,,,,,,,,,,,,,,,None,1302.7274480999913,None,1302.7274480999913,None,1302.7274480999913,None,1310.5807315999991,1311.5809635000187,None,1310.5807315999991,1311.5809635000187,,,,,,,,,001,2022_Oct_24_1816,FacesNamesProffessions_Encoding,2021.2.3,None,
0:6,30:36,encoding_proffession,3,Images_Faces/SH34.png,0,Marknadsförare,P.,S.,M.,,,,,,,,,,,,,0,4,4,0,,,,,0,4,4,3,,,,,,,,,,,,,,,,,,,None,1315.5000946000218,None,1315.5000946000218,None,1315.5000946000218,None,1323.335899800004,1324.3360125999898,None,1323.335899800004,1324.3360125999898,,,,,,,,,001,2022_Oct_24_1816,FacesNamesProffessions_Encoding,2021.2.3,None,
0:6,30:36,encoding_proffession,3,Images_Faces/SH36.png,0,VVS-montör,A.,G.,V.,,,,,,,,,,,,,0,4,4,0,,,,,0,5,5,5,,,,,,,,,,,,,,,,,,,None,1328.2564470000216,None,1328.2564470000216,None,1328.2564470000216,None,1336.1094040999888,1337.1103255000198,None,1336.1094040999888,1337.1103255000198,,,,,,,,,001,2022_Oct_24_1816,FacesNamesProffessions_Encoding,2021.2.3,None,
0:6,30:36,,,,,,,,,,,,,,,,,,,,,0,4,4,0,,,,,,,,,,,,,,,,,,,,,,,,,,,,,,,,,,,,,,,,,,,,,,,001,2022_Oct_24_1816,FacesNamesProffessions_Encoding,2021.2.3,None,
