TrialRows_Name,TrialRows_Proffession,Task,corrAns,StimFile,Name,Proffession,Letter1,Letter2,Letter3,Name_trials.thisRepN,Name_trials.thisTrialN,Name_trials.thisN,Name_trials.thisIndex,Proffession_trials.thisRepN,Proffession_trials.thisTrialN,Proffession_trials.thisN,Proffession_trials.thisIndex,Encoding_Proffession.thisRepN,Encoding_Proffession.thisTrialN,Encoding_Proffession.thisN,Encoding_Proffession.thisIndex,ImmediateRecall_Proffession.thisRepN,ImmediateRecall_Proffession.thisTrialN,ImmediateRecall_Proffession.thisN,ImmediateRecall_Proffession.thisIndex,key_resp.keys,key_resp.rt,key_resp.started,key_resp.stopped,Jitter,key_resp_1.keys,key_resp_1.rt,key_resp_1.started,key_resp_1.stopped,image.started,image.stopped,text_4.started,text_4.stopped,polygon_3.started,polygon_3.stopped,key_resp_3.keys,key_resp_3.started,key_resp_3.stopped,key_resp_ImmediateRecall.keys,key_resp_ImmediateRecall.started,key_resp_ImmediateRecall.stopped,image_3.started,image_3.stopped,text_6.started,text_6.stopped,key_resp_ImmediateRecall.rt,participant,session,date,expName,psychopyVersion,frameRate,
,,,,,,,,,,,,,,,,,,,,,,,,,,s,0.598103500000434,17.639663999987533,None,,,,,,,,,,,,,,,,,,,,,,,,001,2022_Oct_21_1920,Gallery_fMRI,2021.2.3,59.813620755557835,
12:18,42:48,encoding_proffession,3,Images_Faces/SH44.png,0,Målare,M.,G.,S.,,,,,0,0,0,2,0,0,0,1,,,,,,,,,3.5,2,2.589564900001278,33.32577739999397,None,33.32577739999397,None,33.32577739999397,None,40.7709157000063,None,None,40.7709157000063,None,,,,,,,,,,001,2022_Oct_21_1920,Gallery_fMRI,2021.2.3,59.813620755557835,
12:18,42:48,encoding_proffession,2,Images_Faces/SH46.png,0,Svetsare,S.,G.,S.,,,,,0,0,0,2,0,1,1,3,,,,,,,,,3.5,None,,41.29157229998964,None,41.29157229998964,None,41.29157229998964,None,48.78603970000404,None,None,48.78603970000404,None,,,,,,,,,,001,2022_Oct_21_1920,Gallery_fMRI,2021.2.3,59.813620755557835,
12:18,42:48,encoding_proffession,3,Images_Faces/SH48.png,0,Jurist,J.,F.,S.,,,,,0,0,0,2,0,2,2,5,,,,,,,,,8.0,None,,49.30755510000745,None,49.30755510000745,None,49.30755510000745,None,61.304506999993464,None,None,61.304506999993464,None,,,,,,,,,,001,2022_Oct_21_1920,Gallery_fMRI,2021.2.3,59.813620755557835,
12:18,42:48,encoding_proffession,1,Images_Faces/SH45.png,0,Sotare,S.,G.,P.,,,,,0,0,0,2,0,3,3,2,,,,,,,,,2.5,None,,61.82576840001275,None,61.82576840001275,None,61.82576840001275,None,68.31784390000394,None,None,68.31784390000394,None,,,,,,,,,,001,2022_Oct_21_1920,Gallery_fMRI,2021.2.3,59.813620755557835,
12:18,42:48,encoding_proffession,2,Images_Faces/SH43.png,0,Arbetsledare,A.,H.,S.,,,,,0,0,0,2,0,4,4,0,,,,,,,,,4.75,None,,68.83923050001613,None,68.83923050001613,None,68.83923050001613,None,77.58272710000165,None,None,77.58272710000165,None,,,,,,,,,,001,2022_Oct_21_1920,Gallery_fMRI,2021.2.3,59.813620755557835,
12:18,42:48,encoding_proffession,1,Images_Faces/SH47.png,0,Plåtslagare,P.,F.,S.,,,,,0,0,0,2,0,5,5,4,,,,,,,,,5.75,None,,78.10384429999976,None,78.10384429999976,None,78.10384429999976,None,87.84819650001009,None,None,87.84819650001009,None,,,,,,,,,,001,2022_Oct_21_1920,Gallery_fMRI,2021.2.3,59.813620755557835,
12:18,42:48,encoding_proffession,3,Images_Faces/SH44.png,0,Målare,M.,G.,S.,,,,,0,0,0,2,,,,,0,0,0,1,,,,,,,,,,,,,,98.11776280001504,None,None,98.11776280001504,None,None,88.39001999999164,None,88.39001999999164,None,88.39001999999164,None,,,001,2022_Oct_21_1920,Gallery_fMRI,2021.2.3,59.813620755557835,
12:18,42:48,encoding_proffession,2,Images_Faces/SH43.png,0,Arbetsledare,A.,H.,S.,,,,,0,0,0,2,,,,,0,1,1,0,,,,,,,,,,,,,,108.38334709999617,None,None,108.38334709999617,None,None,98.63888089999091,None,98.63888089999091,None,98.63888089999091,None,,,001,2022_Oct_21_1920,Gallery_fMRI,2021.2.3,59.813620755557835,
12:18,42:48,encoding_proffession,3,Images_Faces/SH48.png,0,Jurist,J.,F.,S.,,,,,0,0,0,2,,,,,0,2,2,5,,,,,,,,,,,,,,118.64874920001603,None,None,118.64874920001603,None,1,108.90442880001501,None,108.90442880001501,None,108.90442880001501,None,2.0710766999982297,,001,2022_Oct_21_1920,Gallery_fMRI,2021.2.3,59.813620755557835,
12:18,42:48,encoding_proffession,2,Images_Faces/SH46.png,0,Svetsare,S.,G.,S.,,,,,0,0,0,2,,,,,0,3,3,3,,,,,,,,,,,,,,128.91309760001604,None,None,128.91309760001604,None,None,119.16999299998861,None,119.16999299998861,None,119.16999299998861,None,,,001,2022_Oct_21_1920,Gallery_fMRI,2021.2.3,59.813620755557835,
12:18,42:48,encoding_proffession,1,Images_Faces/SH47.png,0,Plåtslagare,P.,F.,S.,,,,,0,0,0,2,,,,,0,4,4,4,,,,,,,,,,,,,,139.18006949999835,None,None,139.18006949999835,None,None,129.4155776000116,None,129.4155776000116,None,129.4155776000116,None,,,001,2022_Oct_21_1920,Gallery_fMRI,2021.2.3,59.813620755557835,
12:18,42:48,encoding_proffession,1,Images_Faces/SH45.png,0,Sotare,S.,G.,P.,,,,,0,0,0,2,,,,,0,5,5,2,,,,,,,,,,,,,,149.44559409999056,None,None,149.44559409999056,None,None,139.70112469999003,None,139.70112469999003,None,139.70112469999003,None,,,001,2022_Oct_21_1920,Gallery_fMRI,2021.2.3,59.813620755557835,
12:18,42:48,,,,,,,,,,,,,0,0,0,2,,,,,,,,,,,,,,,,,,,,,,,,,,,,,,,,,,,,001,2022_Oct_21_1920,Gallery_fMRI,2021.2.3,59.813620755557835,
0:6,30:36,encoding_proffession,1,Images_Faces/SH36.png,0,VVS-monterare,V.,K.,P.,,,,,0,1,1,0,0,0,0,5,,,,,,,,,7.0,None,,149.9699430000037,None,149.9699430000037,None,149.9699430000037,None,160.96626220000326,None,None,160.96626220000326,None,,,,,,,,,,001,2022_Oct_21_1920,Gallery_fMRI,2021.2.3,59.813620755557835,
0:6,30:36,encoding_proffession,3,Images_Faces/SH31.png,0,Fastighetsskötare,F.,M.,W.,,,,,0,1,1,0,0,1,1,0,,,,,,,,,5.75,None,,161.48734990000958,None,161.48734990000958,None,161.48734990000958,None,171.23185280000325,None,None,171.23185280000325,None,,,,,,,,,,001,2022_Oct_21_1920,Gallery_fMRI,2021.2.3,59.813620755557835,
0:6,30:36,encoding_proffession,1,Images_Faces/SH32.png,0,Skattehandläggare,S.,M.,K.,,,,,0,1,1,0,0,2,2,1,,,,,,,,,9.75,None,,171.75302120001288,None,171.75302120001288,None,171.75302120001288,None,185.50175049999962,None,None,185.50175049999962,None,,,,,,,,,,001,2022_Oct_21_1920,Gallery_fMRI,2021.2.3,59.813620755557835,
0:6,30:36,encoding_proffession,3,Images_Faces/SH35.png,0,Kock,K.,K.,N.,,,,,0,1,1,0,0,3,3,4,,,,,,,,,2.5,None,,186.0228872000007,None,186.0228872000007,None,186.0228872000007,None,192.5137914000079,None,None,192.5137914000079,None,,,,,,,,,,001,2022_Oct_21_1920,Gallery_fMRI,2021.2.3,59.813620755557835,
0:6,30:36,encoding_proffession,2,Images_Faces/SH34.png,0,Marknadsförare,M.,L.,N.,,,,,0,1,1,0,0,4,4,3,,,,,,,,,9.5,None,,193.0349872999941,None,193.0349872999941,None,193.0349872999941,None,206.53359100001398,None,None,206.53359100001398,None,,,,,,,,,,001,2022_Oct_21_1920,Gallery_fMRI,2021.2.3,59.813620755557835,
0:6,30:36,encoding_proffession,2,Images_Faces/SH33.png,0,Elektriker,E.,L.,M.,,,,,0,1,1,0,0,5,5,2,,,,,,,,,3.5,None,,207.05483480001567,None,207.05483480001567,None,207.05483480001567,None,214.5466665000131,None,None,214.5466665000131,None,,,,,,,,,,001,2022_Oct_21_1920,Gallery_fMRI,2021.2.3,59.813620755557835,
0:6,30:36,encoding_proffession,1,Images_Faces/SH36.png,0,VVS-monterare,V.,K.,P.,,,,,0,1,1,0,,,,,0,0,0,5,,,,,,,,,,,,,,222.5618026999873,None,None,222.5618026999873,None,None,215.08658910001395,None,215.08658910001395,None,215.08658910001395,None,,,001,2022_Oct_21_1920,Gallery_fMRI,2021.2.3,59.813620755557835,
0:6,30:36,encoding_proffession,2,Images_Faces/SH33.png,0,Elektriker,E.,L.,M.,,,,,0,1,1,0,,,,,0,1,1,2,,,,,,,,,,,,,,230.57634719999623,None,None,230.57634719999623,None,None,223.0829561999999,None,223.0829561999999,None,223.0829561999999,None,,,001,2022_Oct_21_1920,Gallery_fMRI,2021.2.3,59.813620755557835,
0:6,30:36,encoding_proffession,3,Images_Faces/SH31.png,0,Fastighetsskötare,F.,M.,W.,,,,,0,1,1,0,,,,,0,2,2,0,,,,,,,,,,,,,,238.58955199999036,None,None,238.58955199999036,None,None,231.09765139999217,None,231.09765139999217,None,231.09765139999217,None,,,001,2022_Oct_21_1920,Gallery_fMRI,2021.2.3,59.813620755557835,
0:6,30:36,encoding_proffession,3,Images_Faces/SH35.png,0,Kock,K.,K.,N.,,,,,0,1,1,0,,,,,0,3,3,4,,,,,,,,,,,,,,246.60218149999855,None,None,246.60218149999855,None,None,239.11012910000863,None,239.11012910000863,None,239.11012910000863,None,,,001,2022_Oct_21_1920,Gallery_fMRI,2021.2.3,59.813620755557835,
0:6,30:36,encoding_proffession,1,Images_Faces/SH32.png,0,Skattehandläggare,S.,M.,K.,,,,,0,1,1,0,,,,,0,4,4,1,,,,,,,,,,,,,,254.61553129999083,None,None,254.61553129999083,None,None,247.12353420001455,None,247.12353420001455,None,247.12353420001455,None,,,001,2022_Oct_21_1920,Gallery_fMRI,2021.2.3,59.813620755557835,
0:6,30:36,encoding_proffession,2,Images_Faces/SH34.png,0,Marknadsförare,M.,L.,N.,,,,,0,1,1,0,,,,,0,5,5,3,,,,,,,,,,,,,,262.6331457000051,None,None,262.6331457000051,None,None,255.13729020001483,None,255.13729020001483,None,255.13729020001483,None,,,001,2022_Oct_21_1920,Gallery_fMRI,2021.2.3,59.813620755557835,
0:6,30:36,,,,,,,,,,,,,0,1,1,0,,,,,,,,,,,,,,,,,,,,,,,,,,,,,,,,,,,,001,2022_Oct_21_1920,Gallery_fMRI,2021.2.3,59.813620755557835,
24:30,54:60,encoding_proffession,1,Images_Faces/SH59.png,0,Körskollärare,K.,B.,V.,,,,,0,2,2,4,0,0,0,4,,,,,,,,,6.75,None,,263.1746579000028,None,263.1746579000028,None,263.1746579000028,None,273.9037427000003,None,None,273.9037427000003,None,,,,,,,,,,001,2022_Oct_21_1920,Gallery_fMRI,2021.2.3,59.813620755557835,
24:30,54:60,encoding_proffession,3,Images_Faces/SH58.png,0,Botaniker,B.,H.,U.,,,,,0,2,2,4,0,1,1,3,,,,,,,,,9.25,None,,274.4246558000159,None,274.4246558000159,None,274.4246558000159,None,287.67287460001535,None,None,287.67287460001535,None,,,,,,,,,,001,2022_Oct_21_1920,Gallery_fMRI,2021.2.3,59.813620755557835,
24:30,54:60,encoding_proffession,3,Images_Faces/SH56.png,0,Gruvarbetare,G.,B.,T.,,,,,0,2,2,4,0,2,2,1,,,,,,,,,8.0,None,,288.19409040000755,None,288.19409040000755,None,288.19409040000755,None,300.1924563999928,None,None,300.1924563999928,None,,,,,,,,,,001,2022_Oct_21_1920,Gallery_fMRI,2021.2.3,59.813620755557835,
24:30,54:60,encoding_proffession,3,Images_Faces/SH60.png,0,Polis,P.,A.,V.,,,,,0,2,2,4,0,3,3,5,,,,,,,,,5.75,None,,300.7135807000159,None,300.7135807000159,None,300.7135807000159,None,310.4579522999993,None,None,310.4579522999993,None,,,,,,,,,,001,2022_Oct_21_1920,Gallery_fMRI,2021.2.3,59.813620755557835,
24:30,54:60,encoding_proffession,1,Images_Faces/SH57.png,0,Bonde,B.,G.,T.,,,,,0,2,2,4,0,4,4,2,,,,,,,,,4.5,None,,310.9789376000117,None,310.9789376000117,None,310.9789376000117,None,319.4720515999943,None,None,319.4720515999943,None,,,,,,,,,,001,2022_Oct_21_1920,Gallery_fMRI,2021.2.3,59.813620755557835,
24:30,54:60,encoding_proffession,2,Images_Faces/SH55.png,0,Pastor,P.,B.,S.,,,,,0,2,2,4,0,5,5,0,,,,,,,,,4.75,None,,319.9931671000086,None,319.9931671000086,None,319.9931671000086,None,328.7366164000123,None,None,328.7366164000123,None,,,,,,,,,,001,2022_Oct_21_1920,Gallery_fMRI,2021.2.3,59.813620755557835,
24:30,54:60,encoding_proffession,3,Images_Faces/SH60.png,0,Polis,P.,A.,V.,,,,,0,2,2,4,,,,,0,0,0,5,,,,,,,,,,,,,,338.00426580000203,None,None,338.00426580000203,None,None,329.2782186999975,None,329.2782186999975,None,329.2782186999975,None,,,001,2022_Oct_21_1920,Gallery_fMRI,2021.2.3,59.813620755557835,
24:30,54:60,encoding_proffession,1,Images_Faces/SH57.png,0,Bonde,B.,G.,T.,,,,,0,2,2,4,,,,,0,1,1,2,,,,,,,,,,,,,,347.2693639000063,None,None,347.2693639000063,None,None,338.52592350001214,None,338.52592350001214,None,338.52592350001214,None,,,001,2022_Oct_21_1920,Gallery_fMRI,2021.2.3,59.813620755557835,
24:30,54:60,encoding_proffession,3,Images_Faces/SH56.png,0,Gruvarbetare,G.,B.,T.,,,,,0,2,2,4,,,,,0,2,2,1,,,,,,,,,,,,,,356.5334387999901,None,None,356.5334387999901,None,None,347.79044680000516,None,347.79044680000516,None,347.79044680000516,None,,,001,2022_Oct_21_1920,Gallery_fMRI,2021.2.3,59.813620755557835,
24:30,54:60,encoding_proffession,3,Images_Faces/SH58.png,0,Botaniker,B.,H.,U.,,,,,0,2,2,4,,,,,0,3,3,3,,,,,,,,,,,,,,365.7976762999897,None,None,365.7976762999897,None,None,357.0547341000056,None,357.0547341000056,None,357.0547341000056,None,,,001,2022_Oct_21_1920,Gallery_fMRI,2021.2.3,59.813620755557835,
24:30,54:60,encoding_proffession,2,Images_Faces/SH55.png,0,Pastor,P.,B.,S.,,,,,0,2,2,4,,,,,0,4,4,0,,,,,,,,,,,,,,375.0625207000121,None,None,375.0625207000121,None,None,366.31932300000335,None,366.31932300000335,None,366.31932300000335,None,,,001,2022_Oct_21_1920,Gallery_fMRI,2021.2.3,59.813620755557835,
24:30,54:60,encoding_proffession,1,Images_Faces/SH59.png,0,Körskollärare,K.,B.,V.,,,,,0,2,2,4,,,,,0,5,5,4,,,,,,,,,,,,,,384.3313472000009,None,None,384.3313472000009,None,None,375.5837648999877,None,375.5837648999877,None,375.5837648999877,None,,,001,2022_Oct_21_1920,Gallery_fMRI,2021.2.3,59.813620755557835,
24:30,54:60,,,,,,,,,,,,,0,2,2,4,,,,,,,,,,,,,,,,,,,,,,,,,,,,,,,,,,,,001,2022_Oct_21_1920,Gallery_fMRI,2021.2.3,59.813620755557835,
6:12,36:42,encoding_proffession,1,Images_Faces/SH42.png,0,Tandläkare,T.,H.,R.,,,,,0,3,3,1,0,0,0,5,,,,,,,,,8.5,None,,384.85544590000063,None,384.85544590000063,None,384.85544590000063,None,397.353480699996,None,None,397.353480699996,None,,,,,,,,,,001,2022_Oct_21_1920,Gallery_fMRI,2021.2.3,59.813620755557835,
6:12,36:42,encoding_proffession,3,Images_Faces/SH41.png,0,Säkerhetsvakt,S.,I.,R.,,,,,0,3,3,1,0,1,1,4,,,,,,,,,8.0,1,1.907959000003757,397.87438359999214,None,397.87438359999214,None,397.87438359999214,None,409.8716316999926,None,None,409.8716316999926,None,,,,,,,,,,001,2022_Oct_21_1920,Gallery_fMRI,2021.2.3,59.813620755557835,
6:12,36:42,encoding_proffession,2,Images_Faces/SH40.png,0,Proffessor,P.,I.,P.,,,,,0,3,3,1,0,2,2,3,,,,,,,,,4.5,None,,410.3927137000137,None,410.3927137000137,None,410.3927137000137,None,418.8857554999995,None,None,418.8857554999995,None,,,,,,,,,,001,2022_Oct_21_1920,Gallery_fMRI,2021.2.3,59.813620755557835,
6:12,36:42,encoding_proffession,1,Images_Faces/SH38.png,0,Maskinoperatör,M.,K.,P.,,,,,0,3,3,1,0,3,3,1,,,,,,,,,9.75,None,,419.4068644999934,None,419.4068644999934,None,419.4068644999934,None,433.155792000005,None,None,433.155792000005,None,,,,,,,,,,001,2022_Oct_21_1920,Gallery_fMRI,2021.2.3,59.813620755557835,
6:12,36:42,encoding_proffession,2,Images_Faces/SH37.png,0,Brevbärare,B.,K.,P.,,,,,0,3,3,1,0,4,4,0,,,,,,,,,6.0,None,,433.6769634000084,None,433.6769634000084,None,433.6769634000084,None,443.6716502000054,None,None,443.6716502000054,None,,,,,,,,,,001,2022_Oct_21_1920,Gallery_fMRI,2021.2.3,59.813620755557835,
6:12,36:42,encoding_proffession,3,Images_Faces/SH39.png,0,Marknadschef,M.,J.,P.,,,,,0,3,3,1,0,5,5,2,,,,,,,,,9.75,None,,444.19260400001076,None,444.19260400001076,None,444.19260400001076,None,457.94190929998877,None,None,457.94190929998877,None,,,,,,,,,,001,2022_Oct_21_1920,Gallery_fMRI,2021.2.3,59.813620755557835,
6:12,36:42,encoding_proffession,1,Images_Faces/SH42.png,0,Tandläkare,T.,H.,R.,,,,,0,3,3,1,,,,,0,0,0,5,,,,,,,,,,,,,,472.2146890000149,None,None,472.2146890000149,None,None,458.4826791000087,None,458.4826791000087,None,458.4826791000087,None,,,001,2022_Oct_21_1920,Gallery_fMRI,2021.2.3,59.813620755557835,
6:12,36:42,encoding_proffession,2,Images_Faces/SH37.png,0,Brevbärare,B.,K.,P.,,,,,0,3,3,1,,,,,0,1,1,0,,,,,,,,,,,,,,486.48479449999286,None,None,486.48479449999286,None,None,472.73602060001576,None,472.73602060001576,None,472.73602060001576,None,,,001,2022_Oct_21_1920,Gallery_fMRI,2021.2.3,59.813620755557835,
6:12,36:42,encoding_proffession,3,Images_Faces/SH39.png,0,Marknadschef,M.,J.,P.,,,,,0,3,3,1,,,,,0,2,2,2,,,,,,,,,,,,,,500.7551051999908,None,None,500.7551051999908,None,None,487.0058345000143,None,487.0058345000143,None,487.0058345000143,None,,,001,2022_Oct_21_1920,Gallery_fMRI,2021.2.3,59.813620755557835,
6:12,36:42,encoding_proffession,3,Images_Faces/SH41.png,0,Säkerhetsvakt,S.,I.,R.,,,,,0,3,3,1,,,,,0,3,3,4,,,,,,,,,,,,,,515.0247187000059,None,None,515.0247187000059,None,None,501.27632890001405,None,501.27632890001405,None,501.27632890001405,None,,,001,2022_Oct_21_1920,Gallery_fMRI,2021.2.3,59.813620755557835,
6:12,36:42,encoding_proffession,1,Images_Faces/SH38.png,0,Maskinoperatör,M.,K.,P.,,,,,0,3,3,1,,,,,0,4,4,1,,,,,,,,,,,,,,529.2951289000048,None,None,529.2951289000048,None,None,515.5461889000144,None,515.5461889000144,None,515.5461889000144,None,,,001,2022_Oct_21_1920,Gallery_fMRI,2021.2.3,59.813620755557835,
6:12,36:42,encoding_proffession,2,Images_Faces/SH40.png,0,Proffessor,P.,I.,P.,,,,,0,3,3,1,,,,,0,5,5,3,,,,,,,,,,,,,,543.5655834999925,None,None,543.5655834999925,None,None,529.8165028000076,None,529.8165028000076,None,529.8165028000076,None,,,001,2022_Oct_21_1920,Gallery_fMRI,2021.2.3,59.813620755557835,
6:12,36:42,,,,,,,,,,,,,0,3,3,1,,,,,,,,,,,,,,,,,,,,,,,,,,,,,,,,,,,,001,2022_Oct_21_1920,Gallery_fMRI,2021.2.3,59.813620755557835,
18:24,48:54,encoding_proffession,2,Images_Faces/SH50.png,0,Bartender,B.,F.,S.,,,,,0,4,4,3,0,0,0,1,,,,,,,,,5.75,None,,544.090154400008,None,544.090154400008,None,544.090154400008,None,553.8375412999885,None,None,553.8375412999885,None,,,,,,,,,,001,2022_Oct_21_1920,Gallery_fMRI,2021.2.3,59.813620755557835,
18:24,48:54,encoding_proffession,1,Images_Faces/SH49.png,0,Hovmästare,H.,F.,S.,,,,,0,4,4,3,0,1,1,0,,,,,,,,,3.5,None,,554.3588929999969,None,554.3588929999969,None,554.3588929999969,None,561.8507019999961,None,None,561.8507019999961,None,,,,,,,,,,001,2022_Oct_21_1920,Gallery_fMRI,2021.2.3,59.813620755557835,
18:24,48:54,encoding_proffession,1,Images_Faces/SH53.png,0,VD,V.,E.,S.,,,,,0,4,4,3,0,2,2,4,,,,,,,,,7.0,None,,562.3719125000061,None,562.3719125000061,None,562.3719125000061,None,573.3676960000012,None,None,573.3676960000012,None,,,,,,,,,,001,2022_Oct_21_1920,Gallery_fMRI,2021.2.3,59.813620755557835,
18:24,48:54,encoding_proffession,1,Images_Faces/SH51.png,0,Naprapat,N.,F.,S.,,,,,0,4,4,3,0,3,3,2,,,,,,,,,7.5,None,,573.8888742999989,None,573.8888742999989,None,573.8888742999989,None,585.3877686999913,None,None,585.3877686999913,None,,,,,,,,,,001,2022_Oct_21_1920,Gallery_fMRI,2021.2.3,59.813620755557835,
18:24,48:54,encoding_proffession,3,Images_Faces/SH54.png,0,Trädgårdsmästare,T.,B.,S.,,,,,0,4,4,3,0,4,4,5,,,,,,,,,5.75,None,,585.9088861999917,None,585.9088861999917,None,585.9088861999917,None,595.6534717000031,None,None,595.6534717000031,None,,,,,,,,,,001,2022_Oct_21_1920,Gallery_fMRI,2021.2.3,59.813620755557835,
18:24,48:54,encoding_proffession,1,Images_Faces/SH52.png,0,Sjukgymnast,S.,F.,R.,,,,,0,4,4,3,0,5,5,3,,,,,,,,,5.75,None,,596.1743925999908,None,596.1743925999908,None,596.1743925999908,None,605.9189995999914,None,None,605.9189995999914,None,,,,,,,,,,001,2022_Oct_21_1920,Gallery_fMRI,2021.2.3,59.813620755557835,
18:24,48:54,encoding_proffession,1,Images_Faces/SH49.png,0,Hovmästare,H.,F.,S.,,,,,0,4,4,3,,,,,0,0,0,0,,,,,,,,,,,,,,616.1884192000143,None,None,616.1884192000143,None,None,606.4606796000153,None,606.4606796000153,None,606.4606796000153,None,,,001,2022_Oct_21_1920,Gallery_fMRI,2021.2.3,59.813620755557835,
18:24,48:54,encoding_proffession,2,Images_Faces/SH50.png,0,Bartender,B.,F.,S.,,,,,0,4,4,3,,,,,0,1,1,1,,,,,,,,,,,,,,626.4540633000142,None,None,626.4540633000142,None,None,616.7094553000061,None,616.7094553000061,None,616.7094553000061,None,,,001,2022_Oct_21_1920,Gallery_fMRI,2021.2.3,59.813620755557835,
18:24,48:54,encoding_proffession,1,Images_Faces/SH51.png,0,Naprapat,N.,F.,S.,,,,,0,4,4,3,,,,,0,2,2,2,,,,,,,,,,,,,,636.7196322999953,None,None,636.7196322999953,None,None,626.97523489999,None,626.97523489999,None,626.97523489999,None,,,001,2022_Oct_21_1920,Gallery_fMRI,2021.2.3,59.813620755557835,
18:24,48:54,encoding_proffession,1,Images_Faces/SH52.png,0,Sjukgymnast,S.,F.,R.,,,,,0,4,4,3,,,,,0,3,3,3,,,,,,,,,,,,,,646.9852071999921,None,None,646.9852071999921,None,None,637.2408047000063,None,637.2408047000063,None,637.2408047000063,None,,,001,2022_Oct_21_1920,Gallery_fMRI,2021.2.3,59.813620755557835,
18:24,48:54,encoding_proffession,1,Images_Faces/SH53.png,0,VD,V.,E.,S.,,,,,0,4,4,3,,,,,0,4,4,4,,,,,,,,,,,,,,657.2506906999915,None,None,657.2506906999915,None,None,647.5063173999952,None,647.5063173999952,None,647.5063173999952,None,,,001,2022_Oct_21_1920,Gallery_fMRI,2021.2.3,59.813620755557835,
18:24,48:54,encoding_proffession,3,Images_Faces/SH54.png,0,Trädgårdsmästare,T.,B.,S.,,,,,0,4,4,3,,,,,0,5,5,5,,,,,,,,,,,,,,667.5178641999955,None,None,667.5178641999955,None,None,657.7718807999918,None,657.7718807999918,None,657.7718807999918,None,,,001,2022_Oct_21_1920,Gallery_fMRI,2021.2.3,59.813620755557835,
18:24,48:54,,,,,,,,,,,,,0,4,4,3,,,,,,,,,,,,,,,,,,,,,,,,,,,,,,,,,,,,001,2022_Oct_21_1920,Gallery_fMRI,2021.2.3,59.813620755557835,
