Condition_rows,NumberLetter,corrAns,StimFile,ImgType,ArrowImg,False_StimFile,DurationTrial,trials_1.thisRepN,trials_1.thisTrialN,trials_1.thisN,trials_1.thisIndex,Cued.thisRepN,Cued.thisTrialN,Cued.thisN,Cued.thisIndex,Uncued.thisRepN,Uncued.thisTrialN,Uncued.thisN,Uncued.thisIndex,text.started,text.stopped,key_resp_0.keys,key_resp_0.rt,key_resp_0.started,key_resp_0.stopped,polygon.started,polygon.stopped,key_resp_1.keys,key_resp_1.rt,key_resp_1.started,key_resp_1.stopped,image.started,image.stopped,Arrow.started,Arrow.stopped,key_resp_2.keys,key_resp_2.rt,key_resp_2.started,key_resp_2.stopped,image_2.started,image_2.stopped,text_2.started,text_2.stopped,participant,session,date,expName,psychopyVersion,frameRate,
,,,,,,,,,,,,,,,,,,,,14.233648000052199,None,1,0.7217610999941826,14.233648000052199,None,,,,,,,,,,,,,,,,,,,,001,2021_Nov_10_1456,Gallery_fMRI,2021.2.3,None,
40:44,None,2,filling_cabinet.jpg,Furniture,ArrowUp.png,None,None,0,0,0,10,0,0,0,1,,,,,,,,,,,16.782998400041834,None,2,0.6810482000000775,16.066084600053728,None,16.066084600053728,None,16.066084600053728,None,,,,,,,,,,001,2021_Nov_10_1456,Gallery_fMRI,2021.2.3,None,
40:44,None,3,couch.jpg,Furniture,ArrowRight.png,None,None,0,0,0,10,0,1,1,0,,,,,,,,,,,18.569151900010183,None,2,0.6707210999447852,17.860284000169486,None,17.860284000169486,None,17.860284000169486,None,,,,,,,,,,001,2021_Nov_10_1456,Gallery_fMRI,2021.2.3,None,
40:44,None,3,lectern.jpg,Furniture,ArrowRight.png,None,None,0,0,0,10,0,2,2,3,,,,,,,,,,,20.21040810015984,None,2,0.5510949001181871,19.570890299975872,None,19.570890299975872,None,19.570890299975872,None,,,,,,,,,,001,2021_Nov_10_1456,Gallery_fMRI,2021.2.3,None,
40:44,None,1,lamp.jpg,Furniture,ArrowLeft.png,None,None,0,0,0,10,0,3,3,2,,,,,,,,,,,21.75363970012404,None,2,0.47297889995388687,21.2353877001442,None,21.2353877001442,None,21.2353877001442,None,,,,,,,,,,001,2021_Nov_10_1456,Gallery_fMRI,2021.2.3,None,
40:44,None,2,filling_cabinet.jpg,Furniture,ArrowUp.png,None,None,0,0,0,10,,,,,0,0,0,1,,,,,,,23.270414700033143,None,,,,,,,,,2,0.3816268998198211,22.853238000068814,None,22.853238000068814,None,,,,001,2021_Nov_10_1456,Gallery_fMRI,2021.2.3,None,
40:44,None,1,lamp.jpg,Furniture,ArrowLeft.png,None,None,0,0,0,10,,,,,0,1,1,2,,,,,,,24.671351100085303,None,,,,,,,,,2,0.3789289998821914,24.272713500075042,None,24.272713500075042,None,,,,001,2021_Nov_10_1456,Gallery_fMRI,2021.2.3,None,
40:44,None,3,couch.jpg,Furniture,ArrowRight.png,None,None,0,0,0,10,,,,,0,2,2,0,,,,,,,26.171795000089332,None,,,,,,,,,2,0.36219330015592277,25.745388300158083,None,25.745388300158083,None,,,,001,2021_Nov_10_1456,Gallery_fMRI,2021.2.3,None,
40:44,None,3,lectern.jpg,Furniture,ArrowRight.png,None,None,0,0,0,10,,,,,0,3,3,3,,,,,,,27.55586459999904,None,,,,,,,,,2,0.2926539999898523,27.174979800125584,None,27.174979800125584,None,,,,001,2021_Nov_10_1456,Gallery_fMRI,2021.2.3,None,
40:44,,,,,,,,0,0,0,10,,,,,,,,,,,,,,,,,,,,,,,,,,,,,,,,,,001,2021_Nov_10_1456,Gallery_fMRI,2021.2.3,None,
4:8,None,2,crocodile.jpg,Animal,ArrowUp.png,None,None,0,1,1,1,0,0,0,1,,,,,,,,,,,30.156958400039002,None,2,0.4319066000171006,29.638788799988106,None,29.638788799988106,None,29.638788799988106,None,,,,,,,,,,001,2021_Nov_10_1456,Gallery_fMRI,2021.2.3,None,
4:8,None,1,dromedary.jpg,Animal,ArrowLeft.png,None,None,0,1,1,1,0,1,1,2,,,,,,,,,,,31.50761660002172,None,2,0.2732116999104619,31.218815400032327,None,31.218815400032327,None,31.218815400032327,None,,,,,,,,,,001,2021_Nov_10_1456,Gallery_fMRI,2021.2.3,None,
4:8,None,3,elephant.jpg,Animal,ArrowRight.png,None,None,0,1,1,1,0,2,2,3,,,,,,,,,,,32.7585680000484,None,2,0.1921997000463307,32.52526050014421,None,32.52526050014421,None,32.52526050014421,None,,,,,,,,,,001,2021_Nov_10_1456,Gallery_fMRI,2021.2.3,None,
4:8,None,3,cow.jpg,Animal,ArrowRight.png,None,None,0,1,1,1,0,3,3,0,,,,,,,,,,,33.875674000009894,None,2,0.08941879984922707,33.76143820001744,None,33.76143820001744,None,33.76143820001744,None,,,,,,,,,,001,2021_Nov_10_1456,Gallery_fMRI,2021.2.3,None,
4:8,None,3,cow.jpg,Animal,ArrowRight.png,None,None,0,1,1,1,,,,,0,0,0,0,,,,,,,35.242626500083134,None,,,,,,,,,2,0.24996250006370246,34.95277660014108,None,34.95277660014108,None,,,,001,2021_Nov_10_1456,Gallery_fMRI,2021.2.3,None,
4:8,None,1,dromedary.jpg,Animal,ArrowLeft.png,None,None,0,1,1,1,,,,,0,1,1,2,,,,,,,36.49420509999618,None,,,,,,,,,2,0.19141010008752346,36.24515990004875,None,36.24515990004875,None,,,,001,2021_Nov_10_1456,Gallery_fMRI,2021.2.3,None,
4:8,None,2,crocodile.jpg,Animal,ArrowUp.png,None,None,0,1,1,1,,,,,0,2,2,1,,,,,,,37.66125110001303,None,,,,,,,,,2,0.06314189988188446,37.52707320009358,None,37.52707320009358,None,,,,001,2021_Nov_10_1456,Gallery_fMRI,2021.2.3,None,
4:8,None,3,elephant.jpg,Animal,ArrowRight.png,None,None,0,1,1,1,,,,,0,3,3,3,,,,,,,38.90908250003122,None,,,,,,,,,2,0.2075149999000132,38.66312819998711,None,38.66312819998711,None,,,,001,2021_Nov_10_1456,Gallery_fMRI,2021.2.3,None,
4:8,,,,,,,,0,1,1,1,,,,,,,,,,,,,,,,,,,,,,,,,,,,,,,,,,001,2021_Nov_10_1456,Gallery_fMRI,2021.2.3,None,
20:24,None,3,bus.jpg,Vehicles,ArrowRight.png,None,None,0,2,2,5,0,0,0,2,,,,,,,,,,,41.29596080002375,None,2,0.28949399990960956,40.995419800048694,None,40.995419800048694,None,40.995419800048694,None,,,,,,,,,,001,2021_Nov_10_1456,Gallery_fMRI,2021.2.3,None,
20:24,None,2,car.jpg,Vehicles,ArrowUp.png,None,None,0,2,2,5,0,1,1,3,,,,,,,,,,,42.61321310000494,None,2,0.21807740000076592,42.377083600033075,None,42.377083600033075,None,42.377083600033075,None,,,,,,,,,,001,2021_Nov_10_1456,Gallery_fMRI,2021.2.3,None,
20:24,None,2,zebra.jpg,Animal,ArrowUp.png,None,None,0,2,2,5,0,2,2,0,,,,,,,,,,,43.98001340008341,None,2,0.21278840000741184,43.68501030001789,None,43.68501030001789,None,43.68501030001789,None,,,,,,,,,,001,2021_Nov_10_1456,Gallery_fMRI,2021.2.3,None,
20:24,None,1,boat.jpg,Vehicles,ArrowLeft.png,None,None,0,2,2,5,0,3,3,1,,,,,,,,,,,45.362131900154054,None,2,0.21994880004785955,45.0652526000049,None,45.0652526000049,None,45.0652526000049,None,,,,,,,,,,001,2021_Nov_10_1456,Gallery_fMRI,2021.2.3,None,
20:24,None,2,car.jpg,Vehicles,ArrowUp.png,None,None,0,2,2,5,,,,,0,0,0,3,,,,,,,46.71466890000738,None,,,,,,,,,2,0.22990160016342998,46.464165800018236,None,46.464165800018236,None,,,,001,2021_Nov_10_1456,Gallery_fMRI,2021.2.3,None,
20:24,None,1,boat.jpg,Vehicles,ArrowLeft.png,None,None,0,2,2,5,,,,,0,1,1,1,,,,,,,47.997401900123805,None,,,,,,,,,2,0.16869090008549392,47.71769200009294,None,47.71769200009294,None,,,,001,2021_Nov_10_1456,Gallery_fMRI,2021.2.3,None,
20:24,None,2,zebra.jpg,Animal,ArrowUp.png,None,None,0,2,2,5,,,,,0,2,2,0,,,,,,,49.29933620011434,None,,,,,,,,,2,0.22599519998766482,49.03325780015439,None,49.03325780015439,None,,,,001,2021_Nov_10_1456,Gallery_fMRI,2021.2.3,None,
20:24,None,3,bus.jpg,Vehicles,ArrowRight.png,None,None,0,2,2,5,,,,,0,3,3,2,,,,,,,50.66688790009357,None,,,,,,,,,2,0.19707860006019473,50.384645000100136,None,50.384645000100136,None,,,,001,2021_Nov_10_1456,Gallery_fMRI,2021.2.3,None,
20:24,,,,,,,,0,2,2,5,,,,,,,,,,,,,,,,,,,,,,,,,,,,,,,,,,001,2021_Nov_10_1456,Gallery_fMRI,2021.2.3,None,
16:20,None,3,snake.jpg,Animal,ArrowRight.png,None,None,0,3,3,4,0,0,0,0,,,,,,,,,,,53.201077700126916,None,2,0.3235319999512285,52.81730110011995,None,52.81730110011995,None,52.81730110011995,None,,,,,,,,,,001,2021_Nov_10_1456,Gallery_fMRI,2021.2.3,None,
16:20,None,1,tiger.jpg,Animal,ArrowLeft.png,None,None,0,3,3,4,0,1,1,2,,,,,,,,,,,54.56859829998575,None,2,0.22404789994470775,54.275953900069,None,54.275953900069,None,54.275953900069,None,,,,,,,,,,001,2021_Nov_10_1456,Gallery_fMRI,2021.2.3,None,
16:20,None,2,tapir.jpg,Animal,ArrowUp.png,None,None,0,3,3,4,0,2,2,1,,,,,,,,,,,55.86901480006054,None,2,0.22890969994477928,55.60114340018481,None,55.60114340018481,None,55.60114340018481,None,,,,,,,,,,001,2021_Nov_10_1456,Gallery_fMRI,2021.2.3,None,
16:20,None,3,turtle.jpg,Animal,ArrowRight.png,None,None,0,3,3,4,0,3,3,3,,,,,,,,,,,57.119725099997595,None,2,0.2035169000737369,56.88498610001989,None,56.88498610001989,None,56.88498610001989,None,,,,,,,,,,001,2021_Nov_10_1456,Gallery_fMRI,2021.2.3,None,
16:20,None,3,turtle.jpg,Animal,ArrowRight.png,None,None,0,3,3,4,,,,,0,0,0,3,,,,,,,58.50419130013324,None,,,,,,,,,2,0.2368051998782903,58.21982880006544,None,58.21982880006544,None,,,,001,2021_Nov_10_1456,Gallery_fMRI,2021.2.3,None,
16:20,None,1,tiger.jpg,Animal,ArrowLeft.png,None,None,0,3,3,4,,,,,0,1,1,2,,,,,,,59.75215469999239,None,,,,,,,,,2,0.20307569997385144,59.506642300169915,None,59.506642300169915,None,,,,001,2021_Nov_10_1456,Gallery_fMRI,2021.2.3,None,
16:20,None,3,snake.jpg,Animal,ArrowRight.png,None,None,0,3,3,4,,,,,0,2,2,0,,,,,,,61.00519010005519,None,,,,,,,,,2,0.22975519997999072,60.756384500069544,None,60.756384500069544,None,,,,001,2021_Nov_10_1456,Gallery_fMRI,2021.2.3,None,
16:20,None,2,tapir.jpg,Animal,ArrowUp.png,None,None,0,3,3,4,,,,,0,3,3,1,,,,,,,62.27236509998329,None,,,,,,,,,2,0.24057739996351302,62.00687380018644,None,62.00687380018644,None,,,,001,2021_Nov_10_1456,Gallery_fMRI,2021.2.3,None,
16:20,,,,,,,,0,3,3,4,,,,,,,,,,,,,,,,,,,,,,,,,,,,,,,,,,001,2021_Nov_10_1456,Gallery_fMRI,2021.2.3,None,
36:40,None,1,Chest_of_drawers.jpg,Furniture,ArrowLeft.png,None,None,0,4,4,9,0,0,0,3,,,,,,,,,,,64.60667430004105,None,2,0.228441399987787,64.3552996001672,None,64.3552996001672,None,64.3552996001672,None,,,,,,,,,,001,2021_Nov_10_1456,Gallery_fMRI,2021.2.3,None,
36:40,None,2,chair.jpg,Furniture,ArrowUp.png,None,None,0,4,4,9,0,1,1,2,,,,,,,,,,,65.97418180014938,None,2,0.2138882998842746,65.68025079998188,None,65.68025079998188,None,65.68025079998188,None,,,,,,,,,,001,2021_Nov_10_1456,Gallery_fMRI,2021.2.3,None,
36:40,None,1,bedside_table.jpg,Furniture,ArrowLeft.png,None,None,0,4,4,9,0,2,2,0,,,,,,,,,,,67.35830940003507,None,2,0.217709899879992,67.06096870009787,None,67.06096870009787,None,67.06096870009787,None,,,,,,,,,,001,2021_Nov_10_1456,Gallery_fMRI,2021.2.3,None,
36:40,None,3,bookcase.jpg,Furniture,ArrowRight.png,None,None,0,4,4,9,0,3,3,1,,,,,,,,,,,68.65822630003095,None,2,0.22866080002859235,68.3904870999977,None,68.3904870999977,None,68.3904870999977,None,,,,,,,,,,001,2021_Nov_10_1456,Gallery_fMRI,2021.2.3,None,
36:40,None,1,Chest_of_drawers.jpg,Furniture,ArrowLeft.png,None,None,0,4,4,9,,,,,0,0,0,3,,,,,,,69.94228580011986,None,,,,,,,,,2,0.250113399932161,69.67559910006821,None,69.67559910006821,None,,,,001,2021_Nov_10_1456,Gallery_fMRI,2021.2.3,None,
36:40,None,3,bookcase.jpg,Furniture,ArrowRight.png,None,None,0,4,4,9,,,,,0,1,1,1,,,,,,,71.2933067001868,None,,,,,,,,,2,0.23005850007757545,71.01103790011257,None,71.01103790011257,None,,,,001,2021_Nov_10_1456,Gallery_fMRI,2021.2.3,None,
36:40,None,1,bedside_table.jpg,Furniture,ArrowLeft.png,None,None,0,4,4,9,,,,,0,2,2,0,,,,,,,72.57733430014923,None,,,,,,,,,2,0.2616391000337899,72.29483170015737,None,72.29483170015737,None,,,,001,2021_Nov_10_1456,Gallery_fMRI,2021.2.3,None,
36:40,None,2,chair.jpg,Furniture,ArrowUp.png,None,None,0,4,4,9,,,,,0,3,3,2,,,,,,,73.92736500012688,None,,,,,,,,,2,0.25813319999724627,73.64599129999988,None,73.64599129999988,None,,,,001,2021_Nov_10_1456,Gallery_fMRI,2021.2.3,None,
36:40,,,,,,,,0,4,4,9,,,,,,,,,,,,,,,,,,,,,,,,,,,,,,,,,,001,2021_Nov_10_1456,Gallery_fMRI,2021.2.3,None,
28:32,None,1,skateboard.jpg,Vehicles,ArrowLeft.png,None,None,0,5,5,7,0,0,0,2,,,,,,,,,,,76.39572650007904,None,2,0.2354501998052001,76.11273410008289,None,76.11273410008289,None,76.11273410008289,None,,,,,,,,,,001,2021_Nov_10_1456,Gallery_fMRI,2021.2.3,None,
28:32,None,3,tractor.jpg,Vehicles,ArrowRight.png,None,None,0,5,5,7,0,1,1,3,,,,,,,,,,,77.68056250014342,None,2,0.16423640004359186,77.42813100013882,None,77.42813100013882,None,77.42813100013882,None,,,,,,,,,,001,2021_Nov_10_1456,Gallery_fMRI,2021.2.3,None,
28:32,None,3,scooter.jpg,Vehicles,ArrowRight.png,None,None,0,5,5,7,0,2,2,0,,,,,,,,,,,78.94694220018573,None,2,0.18484910018742085,78.69687800016254,None,78.69687800016254,None,78.69687800016254,None,,,,,,,,,,001,2021_Nov_10_1456,Gallery_fMRI,2021.2.3,None,
28:32,None,2,ship.jpg,Vehicles,ArrowUp.png,None,None,0,5,5,7,0,3,3,1,,,,,,,,,,,80.17845870018937,None,2,0.09404739993624389,80.02014859998599,None,80.02014859998599,None,80.02014859998599,None,,,,,,,,,,001,2021_Nov_10_1456,Gallery_fMRI,2021.2.3,None,
28:32,None,1,skateboard.jpg,Vehicles,ArrowLeft.png,None,None,0,5,5,7,,,,,0,0,0,2,,,,,,,81.43087450019084,None,,,,,,,,,2,0.13528240006417036,81.28070620005019,None,81.28070620005019,None,,,,001,2021_Nov_10_1456,Gallery_fMRI,2021.2.3,None,
28:32,None,3,scooter.jpg,Vehicles,ArrowRight.png,None,None,0,5,5,7,,,,,0,1,1,0,,,,,,,82.6646659001708,None,,,,,,,,,2,0.19106569979339838,82.43294139998034,None,82.43294139998034,None,,,,001,2021_Nov_10_1456,Gallery_fMRI,2021.2.3,None,
28:32,None,2,ship.jpg,Vehicles,ArrowUp.png,None,None,0,5,5,7,,,,,0,2,2,1,,,,,,,83.81522580003366,None,,,,,,,,,2,0.13107509980909526,83.66749760019593,None,83.66749760019593,None,,,,001,2021_Nov_10_1456,Gallery_fMRI,2021.2.3,None,
28:32,None,3,tractor.jpg,Vehicles,ArrowRight.png,None,None,0,5,5,7,,,,,0,3,3,3,,,,,,,85.14906690013595,None,,,,,,,,,2,0.2207599999383092,84.88271700008772,None,84.88271700008772,None,,,,001,2021_Nov_10_1456,Gallery_fMRI,2021.2.3,None,
28:32,,,,,,,,0,5,5,7,,,,,,,,,,,,,,,,,,,,,,,,,,,,,,,,,,001,2021_Nov_10_1456,Gallery_fMRI,2021.2.3,None,
12:16,None,3,lynx.jpg,Animal,ArrowRight.png,None,None,0,6,6,3,0,0,0,1,,,,,,,,,,,87.50028940010816,None,2,0.20453150011599064,87.2119880001992,None,87.2119880001992,None,87.2119880001992,None,,,,,,,,,,001,2021_Nov_10_1456,Gallery_fMRI,2021.2.3,None,
12:16,None,1,rhino.jpg,Animal,ArrowLeft.png,None,None,0,6,6,3,0,1,1,3,,,,,,,,,,,88.63459859997965,None,2,0.09487829986028373,88.51675840001553,None,88.51675840001553,None,88.51675840001553,None,,,,,,,,,,001,2021_Nov_10_1456,Gallery_fMRI,2021.2.3,None,
12:16,None,1,lioness.jpg,Animal,ArrowLeft.png,None,None,0,6,6,3,0,2,2,0,,,,,,,,,,,90.26810550014488,None,2,0.5144523000344634,89.70150880003348,None,89.70150880003348,None,89.70150880003348,None,,,,,,,,,,001,2021_Nov_10_1456,Gallery_fMRI,2021.2.3,None,
12:16,None,2,platypus.jpg,Animal,ArrowUp.png,None,None,0,6,6,3,0,3,3,2,,,,,,,,,,,91.38372160005383,None,2,0.07542600017040968,91.28443710017018,None,91.28443710017018,None,91.28443710017018,None,,,,,,,,,,001,2021_Nov_10_1456,Gallery_fMRI,2021.2.3,None,
12:16,None,3,lynx.jpg,Animal,ArrowRight.png,None,None,0,6,6,3,,,,,0,0,0,1,,,,,,,92.72748720017262,None,,,,,,,,,2,0.19987949985079467,92.45518510020338,None,92.45518510020338,None,,,,001,2021_Nov_10_1456,Gallery_fMRI,2021.2.3,None,
12:16,None,1,lioness.jpg,Animal,ArrowLeft.png,None,None,0,6,6,3,,,,,0,1,1,0,,,,,,,93.9865926001221,None,,,,,,,,,2,0.22514290013350546,93.7382153000217,None,93.7382153000217,None,,,,001,2021_Nov_10_1456,Gallery_fMRI,2021.2.3,None,
12:16,None,2,platypus.jpg,Animal,ArrowUp.png,None,None,0,6,6,3,,,,,0,2,2,2,,,,,,,95.0852542000357,None,,,,,,,,,2,0.06443739985115826,94.98889050004072,None,94.98889050004072,None,,,,001,2021_Nov_10_1456,Gallery_fMRI,2021.2.3,None,
12:16,None,1,rhino.jpg,Animal,ArrowLeft.png,None,None,0,6,6,3,,,,,0,3,3,3,,,,,,,96.37160219997168,None,,,,,,,,,2,0.25955440010875463,96.08979680016637,None,96.08979680016637,None,,,,001,2021_Nov_10_1456,Gallery_fMRI,2021.2.3,None,
12:16,,,,,,,,0,6,6,3,,,,,,,,,,,,,,,,,,,,,,,,,,,,,,,,,,001,2021_Nov_10_1456,Gallery_fMRI,2021.2.3,None,
32:36,None,2,train,Vehicles,ArrowUp.png,None,None,0,7,7,8,0,0,0,0,,,,,,,,,,,98.95436410000548,None,2,0.38917080010287464,98.52274170005694,None,98.52274170005694,None,98.52274170005694,None,,,,,,,,,,001,2021_Nov_10_1456,Gallery_fMRI,2021.2.3,None,
32:36,None,3,armchair.jpg,Furniture,ArrowRight.png,None,None,0,7,7,8,0,1,1,2,,,,,,,,,,,100.57802380016074,None,2,0.46798130008392036,100.02265430008993,None,100.02265430008993,None,100.02265430008993,None,,,,,,,,,,001,2021_Nov_10_1456,Gallery_fMRI,2021.2.3,None,
32:36,None,2,bed.jpg,Furniture,ArrowUp.png,None,None,0,7,7,8,0,2,2,3,,,,,,,,,,,101.97366930008866,None,2,0.3177575001027435,101.60569160012528,None,101.60569160012528,None,101.60569160012528,None,,,,,,,,,,001,2021_Nov_10_1456,Gallery_fMRI,2021.2.3,None,
32:36,None,1,van.jpg,Vehicles,ArrowLeft.png,None,None,0,7,7,8,0,3,3,1,,,,,,,,,,,103.33331230003387,None,2,0.19343720003962517,103.05821250006557,None,103.05821250006557,None,103.05821250006557,None,,,,,,,,,,001,2021_Nov_10_1456,Gallery_fMRI,2021.2.3,None,
32:36,None,3,armchair.jpg,Furniture,ArrowRight.png,None,None,0,7,7,8,,,,,0,0,0,2,,,,,,,104.74171580001712,None,,,,,,,,,2,0.3054068998899311,104.35799510008655,None,104.35799510008655,None,,,,001,2021_Nov_10_1456,Gallery_fMRI,2021.2.3,None,
32:36,None,1,van.jpg,Vehicles,ArrowLeft.png,None,None,0,7,7,8,,,,,0,1,1,1,,,,,,,106.12556369998492,None,,,,,,,,,2,0.1992072002030909,105.82893860014156,None,105.82893860014156,None,,,,001,2021_Nov_10_1456,Gallery_fMRI,2021.2.3,None,
32:36,None,2,bed.jpg,Furniture,ArrowUp.png,None,None,0,7,7,8,,,,,0,2,2,3,,,,,,,107.3594639999792,None,,,,,,,,,2,0.0950893999543041,107.21132660005242,None,107.21132660005242,None,,,,001,2021_Nov_10_1456,Gallery_fMRI,2021.2.3,None,
32:36,None,2,train,Vehicles,ArrowUp.png,None,None,0,7,7,8,,,,,0,3,3,0,,,,,,,108.72028570016846,None,,,,,,,,,2,0.19696240010671318,108.44434500019997,None,108.44434500019997,None,,,,001,2021_Nov_10_1456,Gallery_fMRI,2021.2.3,None,
32:36,,,,,,,,0,7,7,8,,,,,,,,,,,,,,,,,,,,,,,,,,,,,,,,,,001,2021_Nov_10_1456,Gallery_fMRI,2021.2.3,None,
8:12,None,2,kangaroo.jpg,Animal,ArrowUp.png,None,None,0,8,8,2,0,0,0,3,,,,,,,,,,,110.97844830015674,None,2,0.11715939990244806,110.84510110015981,None,110.84510110015981,None,110.84510110015981,None,,,,,,,,,,001,2021_Nov_10_1456,Gallery_fMRI,2021.2.3,None,
8:12,None,1,hippopotamus.jpg,Animal,ArrowLeft.png,None,None,0,8,8,2,0,1,1,1,,,,,,,,,,,112.46192310005426,None,2,0.3061671999748796,112.06066479999572,None,112.06066479999572,None,112.06066479999572,None,,,,,,,,,,001,2021_Nov_10_1456,Gallery_fMRI,2021.2.3,None,
8:12,None,2,giraffe.jpg,Animal,ArrowUp.png,None,None,0,8,8,2,0,2,2,0,,,,,,,,,,,113.82927049999125,None,1,0.27287800004705787,113.53854840015993,None,113.53854840015993,None,113.53854840015993,None,,,,,,,,,,001,2021_Nov_10_1456,Gallery_fMRI,2021.2.3,None,
8:12,None,3,horse.jpg,Animal,ArrowRight.png,None,None,0,8,8,2,0,3,3,2,,,,,,,,,,,115.2278652000241,None,3,0.2750293000135571,114.84529530000873,None,114.84529530000873,None,114.84529530000873,None,,,,,,,,,,001,2021_Nov_10_1456,Gallery_fMRI,2021.2.3,None,
8:12,None,3,horse.jpg,Animal,ArrowRight.png,None,None,0,8,8,2,,,,,0,0,0,2,,,,,,,116.64713420020416,None,,,,,,,,,3,0.2949080001562834,116.33100520004518,None,116.33100520004518,None,,,,001,2021_Nov_10_1456,Gallery_fMRI,2021.2.3,None,
8:12,None,2,giraffe.jpg,Animal,ArrowUp.png,None,None,0,8,8,2,,,,,0,1,1,0,,,,,,,118.19586400012486,None,,,,,,,,,3,0.4124086000956595,117.71602390008047,None,117.71602390008047,None,,,,001,2021_Nov_10_1456,Gallery_fMRI,2021.2.3,None,
8:12,None,2,kangaroo.jpg,Animal,ArrowUp.png,None,None,0,8,8,2,,,,,0,2,2,3,,,,,,,119.74857050017454,None,,,,,,,,,2,0.47172629996202886,119.21477020019665,None,119.21477020019665,None,,,,001,2021_Nov_10_1456,Gallery_fMRI,2021.2.3,None,
8:12,None,1,hippopotamus.jpg,Animal,ArrowLeft.png,None,None,0,8,8,2,,,,,0,3,3,1,,,,,,,121.68273910018615,None,,,,,,,,,2,0.8884689002297819,120.75099109997973,None,120.75099109997973,None,,,,001,2021_Nov_10_1456,Gallery_fMRI,2021.2.3,None,
8:12,,,,,,,,0,8,8,2,,,,,,,,,,,,,,,,,,,,,,,,,,,,,,,,,,001,2021_Nov_10_1456,Gallery_fMRI,2021.2.3,None,
0:4,None,2,cat.jpg,Animal,ArrowUp.png,None,None,0,9,9,0,0,0,0,2,,,,,,,,,,,124.20075880014338,None,1,0.4078806000761688,123.76643520011567,None,123.76643520011567,None,123.76643520011567,None,,,,,,,,,,001,2021_Nov_10_1456,Gallery_fMRI,2021.2.3,None,
0:4,None,1,armadillo.jpg,Animal,ArrowLeft.png,None,10,0,9,9,0,0,1,1,0,,,,,,,,,,,125.58458590018563,None,1,0.2826634000521153,125.28318880009465,None,125.28318880009465,None,125.28318880009465,None,,,,,,,,,,001,2021_Nov_10_1456,Gallery_fMRI,2021.2.3,None,
0:4,None,3,bat.jpg,Animal,ArrowRight.png,None,None,0,9,9,0,0,2,2,1,,,,,,,,,,,127.06669160001911,None,1,0.37914999993517995,126.65078420005739,None,126.65078420005739,None,126.65078420005739,None,,,,,,,,,,001,2021_Nov_10_1456,Gallery_fMRI,2021.2.3,None,
0:4,None,1,cheetah.jpg,Animal,ArrowLeft.png,None,None,0,9,9,0,0,3,3,3,,,,,,,,,,,128.40268830000423,None,1,0.2727558999322355,128.10151610011235,None,128.10151610011235,None,128.10151610011235,None,,,,,,,,,,001,2021_Nov_10_1456,Gallery_fMRI,2021.2.3,None,
0:4,None,1,armadillo.jpg,Animal,ArrowLeft.png,None,10,0,9,9,0,,,,,0,0,0,0,,,,,,,129.7865275000222,None,,,,,,,,,1,0.2716734998393804,129.48612490016967,None,129.48612490016967,None,,,,001,2021_Nov_10_1456,Gallery_fMRI,2021.2.3,None,
0:4,None,3,bat.jpg,Animal,ArrowRight.png,None,None,0,9,9,0,,,,,0,1,1,1,,,,,,,131.27053060010076,None,,,,,,,,,1,0.37291710008867085,130.87038950016722,None,130.87038950016722,None,,,,001,2021_Nov_10_1456,Gallery_fMRI,2021.2.3,None,
0:4,None,2,cat.jpg,Animal,ArrowUp.png,None,None,0,9,9,0,,,,,0,2,2,2,,,,,,,132.58785560005344,None,,,,,,,,,1,0.25068189995363355,132.30624010018073,None,132.30624010018073,None,,,,001,2021_Nov_10_1456,Gallery_fMRI,2021.2.3,None,
0:4,None,1,cheetah.jpg,Animal,ArrowLeft.png,None,None,0,9,9,0,,,,,0,3,3,3,,,,,,,133.9718053000979,None,,,,,,,,,1,0.31294300011359155,133.59013560018502,None,133.59013560018502,None,,,,001,2021_Nov_10_1456,Gallery_fMRI,2021.2.3,None,
0:4,,,,,,,,0,9,9,0,,,,,,,,,,,,,,,,,,,,,,,,,,,,,,,,,,001,2021_Nov_10_1456,Gallery_fMRI,2021.2.3,None,
24:28,None,1,plane.jpg,Vehicles,ArrowLeft.png,None,None,0,10,10,6,0,0,0,3,,,,,,,,,,,136.58982380013913,None,2,0.4723264002241194,136.03427599999122,None,136.03427599999122,None,136.03427599999122,None,,,,,,,,,,001,2021_Nov_10_1456,Gallery_fMRI,2021.2.3,None,
24:28,None,3,motorbike.jpg,Vehicles,ArrowRight.png,None,None,0,10,10,6,0,1,1,1,,,,,,,,,,,138.00700179999694,None,2,0.3944834000431001,137.59190700016916,None,137.59190700016916,None,137.59190700016916,None,,,,,,,,,,001,2021_Nov_10_1456,Gallery_fMRI,2021.2.3,None,
24:28,None,2,paragliding.jpg,Vehicles,ArrowUp.png,None,None,0,10,10,6,0,2,2,2,,,,,,,,,,,139.52428340003826,None,3,0.45574170001782477,139.00871720002033,None,139.00871720002033,None,139.00871720002033,None,,,,,,,,,,001,2021_Nov_10_1456,Gallery_fMRI,2021.2.3,None,
24:28,None,1,cart.jpg,Vehicles,ArrowLeft.png,None,None,0,10,10,6,0,3,3,0,,,,,,,,,,,140.90651740017347,None,1,0.2678750001359731,140.60594660020433,None,140.60594660020433,None,140.60594660020433,None,,,,,,,,,,001,2021_Nov_10_1456,Gallery_fMRI,2021.2.3,None,
24:28,None,2,paragliding.jpg,Vehicles,ArrowUp.png,None,None,0,10,10,6,,,,,0,0,0,2,,,,,,,142.29034850001335,None,,,,,,,,,3,0.2548944998998195,142.00909440009855,None,142.00909440009855,None,,,,001,2021_Nov_10_1456,Gallery_fMRI,2021.2.3,None,
24:28,None,1,plane.jpg,Vehicles,ArrowLeft.png,None,None,0,10,10,6,,,,,0,1,1,3,,,,,,,143.55964710004628,None,,,,,,,,,2,0.23378039989620447,143.2944557000883,None,143.2944557000883,None,,,,001,2021_Nov_10_1456,Gallery_fMRI,2021.2.3,None,
24:28,None,3,motorbike.jpg,Vehicles,ArrowRight.png,None,None,0,10,10,6,,,,,0,2,2,1,,,,,,,144.90828740014695,None,,,,,,,,,1,0.2024694001302123,144.62968860007823,None,144.62968860007823,None,,,,001,2021_Nov_10_1456,Gallery_fMRI,2021.2.3,None,
24:28,None,1,cart.jpg,Vehicles,ArrowLeft.png,None,None,0,10,10,6,,,,,0,3,3,0,,,,,,,146.19422030006535,None,,,,,,,,,1,0.2554134000092745,145.91270300000906,None,145.91270300000906,None,,,,001,2021_Nov_10_1456,Gallery_fMRI,2021.2.3,None,
24:28,,,,,,,,0,10,10,6,,,,,,,,,,,,,,,,,,,,,,,,,,,,,,,,,,001,2021_Nov_10_1456,Gallery_fMRI,2021.2.3,None,
44:48,None,3,stool.jpg,Furniture,ArrowRight.png,None,None,0,11,11,11,0,0,0,2,,,,,,,,,,,148.92818649997935,None,3,0.500700700096786,148.36089990008622,None,148.36089990008622,None,148.36089990008622,None,,,,,,,,,,001,2021_Nov_10_1456,Gallery_fMRI,2021.2.3,None,
44:48,None,2,table.jpg,Furniture,ArrowUp.png,None,None,0,11,11,11,0,1,1,3,,,,,,,,,,,150.2960238000378,None,3,0.2747959999833256,150.00988230016083,None,150.00988230016083,None,150.00988230016083,None,,,,,,,,,,001,2021_Nov_10_1456,Gallery_fMRI,2021.2.3,None,
44:48,None,1,sofa.jpg,Furniture,ArrowLeft.png,None,None,0,11,11,11,0,2,2,1,,,,,,,,,,,151.54661180009134,None,3,0.20870029996149242,151.31227630004287,None,151.31227630004287,None,151.31227630004287,None,,,,,,,,,,001,2021_Nov_10_1456,Gallery_fMRI,2021.2.3,None,
44:48,None,2,rocking_chair.jpg,Furniture,ArrowUp.png,None,None,0,11,11,11,0,3,3,0,,,,,,,,,,,152.79769120016135,None,3,0.18666610005311668,152.56337910005823,None,152.56337910005823,None,152.56337910005823,None,,,,,,,,,,001,2021_Nov_10_1456,Gallery_fMRI,2021.2.3,None,
44:48,None,3,stool.jpg,Furniture,ArrowRight.png,None,None,0,11,11,11,,,,,0,0,0,2,,,,,,,154.22846700018272,None,,,,,,,,,3,0.2763559001032263,153.8641030001454,None,153.8641030001454,None,,,,001,2021_Nov_10_1456,Gallery_fMRI,2021.2.3,None,
44:48,None,1,sofa.jpg,Furniture,ArrowLeft.png,None,None,0,11,11,11,,,,,0,1,1,1,,,,,,,155.61534740007482,None,,,,,,,,,3,0.2943281999323517,155.23343780008145,None,155.23343780008145,None,,,,001,2021_Nov_10_1456,Gallery_fMRI,2021.2.3,None,
44:48,None,2,rocking_chair.jpg,Furniture,ArrowUp.png,None,None,0,11,11,11,,,,,0,2,2,0,,,,,,,156.98390790005215,None,,,,,,,,,3,0.2747742999345064,156.61735559999943,None,156.61735559999943,None,,,,001,2021_Nov_10_1456,Gallery_fMRI,2021.2.3,None,
44:48,None,2,table.jpg,Furniture,ArrowUp.png,None,None,0,11,11,11,,,,,0,3,3,3,,,,,,,158.25049660005607,None,,,,,,,,,3,0.1546774001326412,158.00141690019518,None,158.00141690019518,None,,,,001,2021_Nov_10_1456,Gallery_fMRI,2021.2.3,None,
44:48,,,,,,,,0,11,11,11,,,,,,,,,,,,,,,,,,,,,,,,,,,,,,,,,,001,2021_Nov_10_1456,Gallery_fMRI,2021.2.3,None,
,,,,,,,,,,,,,,,,,,,,,,,,,,,,,,,,,,,,,,,,,,159.25046120001934,None,,,,,,,
