Condition_rows,NumberLetter,corrAns,StimFile,ImgType,ArrowImg,False_StimFile,DurationTrial,trials_1.thisRepN,trials_1.thisTrialN,trials_1.thisN,trials_1.thisIndex,Cued.thisRepN,Cued.thisTrialN,Cued.thisN,Cued.thisIndex,Uncued.thisRepN,Uncued.thisTrialN,Uncued.thisN,Uncued.thisIndex,text.started,text.stopped,key_resp_0.keys,key_resp_0.rt,key_resp_0.started,key_resp_0.stopped,key_resp_1.keys,key_resp_1.rt,key_resp_1.started,key_resp_1.stopped,image.started,image.stopped,Arrow.started,Arrow.stopped,polygon.started,polygon.stopped,key_resp_2.keys,key_resp_2.rt,key_resp_2.started,key_resp_2.stopped,image_2.started,image_2.stopped,participant,session,date,expName,psychopyVersion,frameRate,
,,,,,,,,,,,,,,,,,,,,15.788478700007545,None,1,1.72031419997802,15.788478700007545,None,,,,,,,,,,,,,,,,,,001,2021_Nov_12_1026,Gallery_fMRI,2021.2.3,None,
28:32,None,3,tractor.jpg,Vehicles,ArrowRight.png,None,None,0,0,0,7,0,0,0,3,,,,,,,,,,,3,1.57048679998843,17.62886850000359,None,17.62886850000359,None,17.62886850000359,None,20.54994669998996,None,,,,,,,,001,2021_Nov_12_1026,Gallery_fMRI,2021.2.3,None,
28:32,None,3,scooter.jpg,Vehicles,ArrowRight.png,None,None,0,0,0,7,0,1,1,0,,,,,,,,,,,3,1.9753155000216793,21.54923490001238,None,21.54923490001238,None,21.54923490001238,None,24.53375999999116,None,,,,,,,,001,2021_Nov_12_1026,Gallery_fMRI,2021.2.3,None,
28:32,None,1,skateboard.jpg,Vehicles,ArrowLeft.png,None,None,0,0,0,7,0,2,2,2,,,,,,,,,,,1,1.7784646999789402,25.583897300006356,None,25.583897300006356,None,25.583897300006356,None,28.55137920001289,None,,,,,,,,001,2021_Nov_12_1026,Gallery_fMRI,2021.2.3,None,
28:32,None,2,ship.jpg,Vehicles,ArrowUp.png,None,None,0,0,0,7,0,3,3,1,,,,,,,,,,,2,1.175944700022228,29.58432470000116,None,29.58432470000116,None,29.58432470000116,None,32.554902100004256,None,,,,,,,,001,2021_Nov_12_1026,Gallery_fMRI,2021.2.3,None,
28:32,None,3,scooter.jpg,Vehicles,ArrowRight.png,None,None,0,0,0,7,,,,,0,0,0,0,,,,,,,,,,,,,,,36.556288899999345,None,1,2.359831600013422,33.63664919999428,None,33.63664919999428,None,,001,2021_Nov_12_1026,Gallery_fMRI,2021.2.3,None,
28:32,None,2,ship.jpg,Vehicles,ArrowUp.png,None,None,0,0,0,7,,,,,0,1,1,1,,,,,,,,,,,,,,,40.540339900006074,None,3,0.9382525999972131,37.557763299992075,None,37.557763299992075,None,,001,2021_Nov_12_1026,Gallery_fMRI,2021.2.3,None,
28:32,None,1,skateboard.jpg,Vehicles,ArrowLeft.png,None,None,0,0,0,7,,,,,0,2,2,2,,,,,,,,,,,,,,,44.558306599996286,None,2,0.514798799995333,41.56145219999598,None,41.56145219999598,None,,001,2021_Nov_12_1026,Gallery_fMRI,2021.2.3,None,
28:32,None,3,tractor.jpg,Vehicles,ArrowRight.png,None,None,0,0,0,7,,,,,0,3,3,3,,,,,,,,,,,,,,,48.56487920001382,None,3,0.6944661000161432,45.54403039999306,None,45.54403039999306,None,,001,2021_Nov_12_1026,Gallery_fMRI,2021.2.3,None,
28:32,,,,,,,,0,0,0,7,,,,,,,,,,,,,,,,,,,,,,,,,,,,,,,,001,2021_Nov_12_1026,Gallery_fMRI,2021.2.3,None,
32:36,None,2,train,Vehicles,ArrowUp.png,None,None,0,1,1,8,0,0,0,0,,,,,,,,,,,2,0.9800525000027847,49.594376099994406,None,49.594376099994406,None,49.594376099994406,None,52.56488499999978,None,,,,,,,,001,2021_Nov_12_1026,Gallery_fMRI,2021.2.3,None,
32:36,None,2,bed.jpg,Furniture,ArrowUp.png,None,None,0,1,1,8,0,1,1,3,,,,,,,,,,,1,1.0440633000107482,53.613514399999985,None,53.613514399999985,None,53.613514399999985,None,56.54697630001465,None,,,,,,,,001,2021_Nov_12_1026,Gallery_fMRI,2021.2.3,None,
32:36,None,3,armchair.jpg,Furniture,ArrowRight.png,None,None,0,1,1,8,0,2,2,2,,,,,,,,,,,3,0.6662725000060163,57.59921580000082,None,57.59921580000082,None,57.59921580000082,None,60.54883129999507,None,,,,,,,,001,2021_Nov_12_1026,Gallery_fMRI,2021.2.3,None,
32:36,None,1,van.jpg,Vehicles,ArrowLeft.png,None,None,0,1,1,8,0,3,3,1,,,,,,,,,,,1,0.831214399979217,61.58389010000974,None,61.58389010000974,None,61.58389010000974,None,64.5541579000128,None,,,,,,,,001,2021_Nov_12_1026,Gallery_fMRI,2021.2.3,None,
32:36,None,2,train,Vehicles,ArrowUp.png,None,None,0,1,1,8,,,,,0,0,0,0,,,,,,,,,,,,,,,68.55331429999205,None,1,1.9664349000086077,65.5857612999971,None,65.5857612999971,None,,001,2021_Nov_12_1026,Gallery_fMRI,2021.2.3,None,
32:36,None,3,armchair.jpg,Furniture,ArrowRight.png,None,None,0,1,1,8,,,,,0,1,1,2,,,,,,,,,,,,,,,72.55702939999173,None,1,1.6377743000048213,69.58694100001594,None,69.58694100001594,None,,001,2021_Nov_12_1026,Gallery_fMRI,2021.2.3,None,
32:36,None,2,bed.jpg,Furniture,ArrowUp.png,None,None,0,1,1,8,,,,,0,2,2,3,,,,,,,,,,,,,,,76.55732769999304,None,3,1.0027664999943227,73.57450190000236,None,73.57450190000236,None,,001,2021_Nov_12_1026,Gallery_fMRI,2021.2.3,None,
32:36,None,1,van.jpg,Vehicles,ArrowLeft.png,None,None,0,1,1,8,,,,,0,3,3,1,,,,,,,,,,,,,,,80.559889199998,None,3,0.029559899994637817,77.59101000000373,None,77.59101000000373,None,,001,2021_Nov_12_1026,Gallery_fMRI,2021.2.3,None,
32:36,,,,,,,,0,1,1,8,,,,,,,,,,,,,,,,,,,,,,,,,,,,,,,,001,2021_Nov_12_1026,Gallery_fMRI,2021.2.3,None,
16:20,None,1,tiger.jpg,Animal,ArrowLeft.png,None,None,0,2,2,4,0,0,0,2,,,,,,,,,,,3,0.5044212999928277,81.6266472999996,None,81.6266472999996,None,81.6266472999996,None,84.55937189998804,None,,,,,,,,001,2021_Nov_12_1026,Gallery_fMRI,2021.2.3,None,
16:20,None,2,tapir.jpg,Animal,ArrowUp.png,None,None,0,2,2,4,0,1,1,1,,,,,,,,,,,2,1.7470758000272326,85.56138780000038,None,85.56138780000038,None,85.56138780000038,None,88.56132800001069,None,,,,,,,,001,2021_Nov_12_1026,Gallery_fMRI,2021.2.3,None,
16:20,None,3,turtle.jpg,Animal,ArrowRight.png,None,None,0,2,2,4,0,2,2,3,,,,,,,,,,,3,1.3251448000082746,89.59610670001712,None,89.59610670001712,None,89.59610670001712,None,92.54743390000658,None,,,,,,,,001,2021_Nov_12_1026,Gallery_fMRI,2021.2.3,None,
16:20,None,3,snake.jpg,Animal,ArrowRight.png,None,None,0,2,2,4,0,3,3,0,,,,,,,,,,,3,1.1405642000027,93.54916670001694,None,93.54916670001694,None,93.54916670001694,None,96.53557680000085,None,,,,,,,,001,2021_Nov_12_1026,Gallery_fMRI,2021.2.3,None,
16:20,None,1,tiger.jpg,Animal,ArrowLeft.png,None,None,0,2,2,4,,,,,0,0,0,2,,,,,,,,,,,,,,,100.55170410001301,None,None,,97.60117020001053,None,97.60117020001053,None,,001,2021_Nov_12_1026,Gallery_fMRI,2021.2.3,None,
16:20,None,3,snake.jpg,Animal,ArrowRight.png,None,None,0,2,2,4,,,,,0,1,1,0,,,,,,,,,,,,,,,104.5534301000007,None,None,,101.55434190001688,None,101.55434190001688,None,,001,2021_Nov_12_1026,Gallery_fMRI,2021.2.3,None,
16:20,None,2,tapir.jpg,Animal,ArrowUp.png,None,None,0,2,2,4,,,,,0,2,2,1,,,,,,,,,,,,,,,108.53927070001373,None,2,0.9576027000148315,105.58892730000662,None,105.58892730000662,None,,001,2021_Nov_12_1026,Gallery_fMRI,2021.2.3,None,
16:20,None,3,turtle.jpg,Animal,ArrowRight.png,None,None,0,2,2,4,,,,,0,3,3,3,,,,,,,,,,,,,,,112.5565942999965,None,None,,109.55729220001376,None,109.55729220001376,None,,001,2021_Nov_12_1026,Gallery_fMRI,2021.2.3,None,
16:20,,,,,,,,0,2,2,4,,,,,,,,,,,,,,,,,,,,,,,,,,,,,,,,001,2021_Nov_12_1026,Gallery_fMRI,2021.2.3,None,
24:28,None,1,cart.jpg,Vehicles,ArrowLeft.png,None,None,0,3,3,6,0,0,0,0,,,,,,,,,,,1,0.9857791000104044,113.62325810000766,None,113.62325810000766,None,113.62325810000766,None,116.54519930001698,None,,,,,,,,001,2021_Nov_12_1026,Gallery_fMRI,2021.2.3,None,
24:28,None,3,motorbike.jpg,Vehicles,ArrowRight.png,None,None,0,3,3,6,0,1,1,1,,,,,,,,,,,3,2.654515400005039,117.57824729999993,None,117.57824729999993,None,117.57824729999993,None,120.56185970001388,None,,,,,,,,001,2021_Nov_12_1026,Gallery_fMRI,2021.2.3,None,
