Condition_rows,NumberLetter,corrAns,StimFile,ImgType,ArrowImg,False_StimFile,DurationTrial,trials_1.thisRepN,trials_1.thisTrialN,trials_1.thisN,trials_1.thisIndex,Cued.thisRepN,Cued.thisTrialN,Cued.thisN,Cued.thisIndex,Uncued.thisRepN,Uncued.thisTrialN,Uncued.thisN,Uncued.thisIndex,text.started,text.stopped,key_resp_0.keys,key_resp_0.rt,key_resp_0.started,key_resp_0.stopped,polygon.started,polygon.stopped,key_resp_1.keys,key_resp_1.rt,key_resp_1.started,key_resp_1.stopped,image.started,image.stopped,Arrow.started,Arrow.stopped,key_resp_2.keys,key_resp_2.rt,key_resp_2.started,key_resp_2.stopped,image_2.started,image_2.stopped,participant,session,date,expName,psychopyVersion,frameRate,
,,,,,,,,,,,,,,,,,,,,14.474330900004134,None,1,0.7709349000360817,14.474330900004134,None,,,,,,,,,,,,,,,,,,001,2021_Nov_10_1447,Gallery_fMRI,2021.2.3,None,
24:28,None,1,cart.jpg,Vehicles,ArrowLeft.png,None,None,0,0,0,6,0,0,0,0,,,,,,,,,,,17.292351300129667,None,1,0.8414795000571758,16.359485700028017,None,16.359485700028017,None,16.359485700028017,None,,,,,,,,001,2021_Nov_10_1447,Gallery_fMRI,2021.2.3,None,
24:28,None,3,motorbike.jpg,Vehicles,ArrowRight.png,None,None,0,0,0,6,0,1,1,1,,,,,,,,,,,19.226882200222462,None,3,0.7575433999300003,18.381128900218755,None,18.381128900218755,None,18.381128900218755,None,,,,,,,,001,2021_Nov_10_1447,Gallery_fMRI,2021.2.3,None,
24:28,None,1,plane.jpg,Vehicles,ArrowLeft.png,None,None,0,0,0,6,0,2,2,3,,,,,,,,,,,21.161626800196245,None,1,0.795010699890554,20.315885100048035,None,20.315885100048035,None,20.315885100048035,None,,,,,,,,001,2021_Nov_10_1447,Gallery_fMRI,2021.2.3,None,
24:28,None,2,paragliding.jpg,Vehicles,ArrowUp.png,None,None,0,0,0,6,0,3,3,2,,,,,,,,,,,23.2781541000586,None,2,1.0075272000394762,22.254122300073504,None,22.254122300073504,None,22.254122300073504,None,,,,,,,,001,2021_Nov_10_1447,Gallery_fMRI,2021.2.3,None,
24:28,None,3,motorbike.jpg,Vehicles,ArrowRight.png,None,None,0,0,0,6,,,,,0,0,0,1,,,,,,,25.84610419999808,None,,,,,,,,,1,1.3841996998526156,24.378844400169328,None,24.378844400169328,None,,001,2021_Nov_10_1447,Gallery_fMRI,2021.2.3,None,
24:28,None,1,plane.jpg,Vehicles,ArrowLeft.png,None,None,0,0,0,6,,,,,0,1,1,3,,,,,,,27.780426000012085,None,,,,,,,,,2,0.8682939000427723,26.84918920020573,None,26.84918920020573,None,,001,2021_Nov_10_1447,Gallery_fMRI,2021.2.3,None,
24:28,None,1,cart.jpg,Vehicles,ArrowLeft.png,None,None,0,0,0,6,,,,,0,2,2,0,,,,,,,29.448516600066796,None,,,,,,,,,3,0.6421230998821557,28.782633000053465,None,28.782633000053465,None,,001,2021_Nov_10_1447,Gallery_fMRI,2021.2.3,None,
24:28,None,2,paragliding.jpg,Vehicles,ArrowUp.png,None,None,0,0,0,6,,,,,0,3,3,2,,,,,,,31.132640300085768,None,,,,,,,,,2,0.6567156999371946,30.450324200093746,None,30.450324200093746,None,,001,2021_Nov_10_1447,Gallery_fMRI,2021.2.3,None,
24:28,,,,,,,,0,0,0,6,,,,,,,,,,,,,,,,,,,,,,,,,,,,,,,,001,2021_Nov_10_1447,Gallery_fMRI,2021.2.3,None,
20:24,None,3,bus.jpg,Vehicles,ArrowRight.png,None,None,0,1,1,5,0,0,0,2,,,,,,,,,,,34.000885400222614,None,3,0.7565359999425709,33.21478770021349,None,33.21478770021349,None,33.21478770021349,None,,,,,,,,001,2021_Nov_10_1447,Gallery_fMRI,2021.2.3,None,
20:24,None,1,boat.jpg,Vehicles,ArrowLeft.png,None,None,0,1,1,5,0,1,1,1,,,,,,,,,,,36.257924400037155,None,1,1.1363225998356938,35.03279330022633,None,35.03279330022633,None,35.03279330022633,None,,,,,,,,001,2021_Nov_10_1447,Gallery_fMRI,2021.2.3,None,
20:24,None,2,car.jpg,Vehicles,ArrowUp.png,None,None,0,1,1,5,0,2,2,3,,,,,,,,,,,38.11853269999847,None,2,0.8138459001202136,37.28439180017449,None,37.28439180017449,None,37.28439180017449,None,,,,,,,,001,2021_Nov_10_1447,Gallery_fMRI,2021.2.3,None,
20:24,None,2,zebra.jpg,Animal,ArrowUp.png,None,None,0,1,1,5,0,3,3,0,,,,,,,,,,,40.00296510010958,None,2,0.778989200014621,39.20238550007343,None,39.20238550007343,None,39.20238550007343,None,,,,,,,,001,2021_Nov_10_1447,Gallery_fMRI,2021.2.3,None,
20:24,None,2,car.jpg,Vehicles,ArrowUp.png,None,None,0,1,1,5,,,,,0,0,0,3,,,,,,,44.021789900027215,None,,,,,,,,,None,,41.01976350019686,None,41.01976350019686,None,,001,2021_Nov_10_1447,Gallery_fMRI,2021.2.3,None,
20:24,None,2,zebra.jpg,Animal,ArrowUp.png,None,None,0,1,1,5,,,,,0,1,1,0,,,,,,,45.78428480005823,None,,,,,,,,,3,0.5922920000739396,45.109034300083295,None,45.109034300083295,None,,001,2021_Nov_10_1447,Gallery_fMRI,2021.2.3,None,
20:24,None,3,bus.jpg,Vehicles,ArrowRight.png,None,None,0,1,1,5,,,,,0,2,2,2,,,,,,,47.30562450014986,None,,,,,,,,,1,0.3161732000298798,46.892632000148296,None,46.892632000148296,None,,001,2021_Nov_10_1447,Gallery_fMRI,2021.2.3,None,
20:24,None,1,boat.jpg,Vehicles,ArrowLeft.png,None,None,0,1,1,5,,,,,0,3,3,1,,,,,,,48.60663690022193,None,,,,,,,,,2,0.2778179000597447,48.3085532002151,None,48.3085532002151,None,,001,2021_Nov_10_1447,Gallery_fMRI,2021.2.3,None,
20:24,,,,,,,,0,1,1,5,,,,,,,,,,,,,,,,,,,,,,,,,,,,,,,,001,2021_Nov_10_1447,Gallery_fMRI,2021.2.3,None,
4:8,None,3,elephant.jpg,Animal,ArrowRight.png,None,None,0,2,2,1,0,0,0,3,,,,,,,,,,,51.20833890000358,None,3,0.4244236999657005,50.76718890015036,None,50.76718890015036,None,50.76718890015036,None,,,,,,,,001,2021_Nov_10_1447,Gallery_fMRI,2021.2.3,None,
4:8,None,1,dromedary.jpg,Animal,ArrowLeft.png,None,None,0,2,2,1,0,1,1,2,,,,,,,,,,,52.7256482001394,None,1,0.41780530009418726,52.28991310019046,None,52.28991310019046,None,52.28991310019046,None,,,,,,,,001,2021_Nov_10_1447,Gallery_fMRI,2021.2.3,None,
4:8,None,2,crocodile.jpg,Animal,ArrowUp.png,None,None,0,2,2,1,0,2,2,1,,,,,,,,,,,54.227986000012606,None,2,0.39550100010819733,53.79699960001744,None,53.79699960001744,None,53.79699960001744,None,,,,,,,,001,2021_Nov_10_1447,Gallery_fMRI,2021.2.3,None,
4:8,None,3,cow.jpg,Animal,ArrowRight.png,None,None,0,2,2,1,0,3,3,0,,,,,,,,,,,55.77677860017866,None,3,0.434188200160861,55.31726280017756,None,55.31726280017756,None,55.31726280017756,None,,,,,,,,001,2021_Nov_10_1447,Gallery_fMRI,2021.2.3,None,
4:8,None,1,dromedary.jpg,Animal,ArrowLeft.png,None,None,0,2,2,1,,,,,0,0,0,2,,,,,,,59.545244000153616,None,,,,,,,,,2,2.6882348998915404,56.84157090005465,None,56.84157090005465,None,,001,2021_Nov_10_1447,Gallery_fMRI,2021.2.3,None,
4:8,None,3,elephant.jpg,Animal,ArrowRight.png,None,None,0,2,2,1,,,,,0,1,1,3,,,,,,,61.2106108001899,None,,,,,,,,,1,0.6320485000032932,60.54754460020922,None,60.54754460020922,None,,001,2021_Nov_10_1447,Gallery_fMRI,2021.2.3,None,
4:8,None,3,cow.jpg,Animal,ArrowRight.png,None,None,0,2,2,1,,,,,0,2,2,0,,,,,,,63.13064040010795,None,,,,,,,,,3,0.847728000022471,62.21651110006496,None,62.21651110006496,None,,001,2021_Nov_10_1447,Gallery_fMRI,2021.2.3,None,
4:8,None,2,crocodile.jpg,Animal,ArrowUp.png,None,None,0,2,2,1,,,,,0,3,3,1,,,,,,,64.78111180011183,None,,,,,,,,,2,0.6104373000562191,64.13251360016875,None,64.13251360016875,None,,001,2021_Nov_10_1447,Gallery_fMRI,2021.2.3,None,
4:8,,,,,,,,0,2,2,1,,,,,,,,,,,,,,,,,,,,,,,,,,,,,,,,001,2021_Nov_10_1447,Gallery_fMRI,2021.2.3,None,
16:20,None,3,turtle.jpg,Animal,ArrowRight.png,None,None,0,3,3,4,0,0,0,3,,,,,,,,,,,67.58245880017057,None,3,0.7150403000414371,66.8462778001558,None,66.8462778001558,None,66.8462778001558,None,,,,,,,,001,2021_Nov_10_1447,Gallery_fMRI,2021.2.3,None,
16:20,None,2,tapir.jpg,Animal,ArrowUp.png,None,None,0,3,3,4,0,1,1,1,,,,,,,,,,,69.21639570011757,None,2,0.5543066000100225,68.6413689001929,None,68.6413689001929,None,68.6413689001929,None,,,,,,,,001,2021_Nov_10_1447,Gallery_fMRI,2021.2.3,None,
16:20,None,3,snake.jpg,Animal,ArrowRight.png,None,None,0,3,3,4,0,2,2,0,,,,,,,,,,,71.01525620021857,None,3,0.6380224998574704,70.30142420018092,None,70.30142420018092,None,70.30142420018092,None,,,,,,,,001,2021_Nov_10_1447,Gallery_fMRI,2021.2.3,None,
16:20,None,1,tiger.jpg,Animal,ArrowLeft.png,None,None,0,3,3,4,0,3,3,2,,,,,,,,,,,72.57520460011438,None,1,0.4430437001865357,72.049907800043,None,72.049907800043,None,72.049907800043,None,,,,,,,,001,2021_Nov_10_1447,Gallery_fMRI,2021.2.3,None,
16:20,None,2,tapir.jpg,Animal,ArrowUp.png,None,None,0,3,3,4,,,,,0,0,0,1,,,,,,,74.5117550001014,None,,,,,,,,,2,0.8354072000365704,73.60143870022148,None,73.60143870022148,None,,001,2021_Nov_10_1447,Gallery_fMRI,2021.2.3,None,
16:20,None,3,turtle.jpg,Animal,ArrowRight.png,None,None,0,3,3,4,,,,,0,1,1,3,,,,,,,75.80256550014019,None,,,,,,,,,3,0.26636059978045523,75.52094580000266,None,75.52094580000266,None,,001,2021_Nov_10_1447,Gallery_fMRI,2021.2.3,None,
16:20,None,1,tiger.jpg,Animal,ArrowLeft.png,None,None,0,3,3,4,,,,,0,2,2,2,,,,,,,77.1365004000254,None,,,,,,,,,1,0.21738069993443787,76.86964850011282,None,76.86964850011282,None,,001,2021_Nov_10_1447,Gallery_fMRI,2021.2.3,None,
16:20,None,3,snake.jpg,Animal,ArrowRight.png,None,None,0,3,3,4,,,,,0,3,3,0,,,,,,,78.51868210011162,None,,,,,,,,,2,0.2671741000376642,78.13896770006977,None,78.13896770006977,None,,001,2021_Nov_10_1447,Gallery_fMRI,2021.2.3,None,
16:20,,,,,,,,0,3,3,4,,,,,,,,,,,,,,,,,,,,,,,,,,,,,,,,001,2021_Nov_10_1447,Gallery_fMRI,2021.2.3,None,
0:4,None,1,cheetah.jpg,Animal,ArrowLeft.png,None,None,0,4,4,0,0,0,0,3,,,,,,,,,,,81.41996770002879,None,2,0.7588655999861658,80.6062302000355,None,80.6062302000355,None,80.6062302000355,None,,,,,,,,001,2021_Nov_10_1447,Gallery_fMRI,2021.2.3,None,
0:4,None,3,bat.jpg,Animal,ArrowRight.png,None,None,0,4,4,0,0,1,1,1,,,,,,,,,,,82.83926540007815,None,2,0.34797809994779527,82.45459030009806,None,82.45459030009806,None,82.45459030009806,None,,,,,,,,001,2021_Nov_10_1447,Gallery_fMRI,2021.2.3,None,
0:4,None,2,cat.jpg,Animal,ArrowUp.png,None,None,0,4,4,0,0,2,2,2,,,,,,,,,,,84.09002760006115,None,2,0.20505379978567362,83.85521790012717,None,83.85521790012717,None,83.85521790012717,None,,,,,,,,001,2021_Nov_10_1447,Gallery_fMRI,2021.2.3,None,
0:4,None,1,armadillo.jpg,Animal,ArrowLeft.png,None,10,0,4,4,0,0,3,3,0,,,,,,,,,,,85.45726370019838,None,2,0.25351720000617206,85.10592600004748,None,85.10592600004748,None,85.10592600004748,None,,,,,,,,001,2021_Nov_10_1447,Gallery_fMRI,2021.2.3,None,
0:4,None,1,cheetah.jpg,Animal,ArrowLeft.png,None,None,0,4,4,0,,,,,0,0,0,3,,,,,,,86.84099950012751,None,,,,,,,,,2,0.32756449980661273,86.47417640010826,None,86.47417640010826,None,,001,2021_Nov_10_1447,Gallery_fMRI,2021.2.3,None,
0:4,None,3,bat.jpg,Animal,ArrowRight.png,None,None,0,4,4,0,,,,,0,1,1,1,,,,,,,88.10852880007587,None,,,,,,,,,2,0.234001399949193,87.84336570021696,None,87.84336570021696,None,,001,2021_Nov_10_1447,Gallery_fMRI,2021.2.3,None,
0:4,None,1,armadillo.jpg,Animal,ArrowLeft.png,None,10,0,4,4,0,,,,,0,2,2,0,,,,,,,89.392956700176,None,,,,,,,,,2,0.1483750999905169,89.17949730018154,None,89.17949730018154,None,,001,2021_Nov_10_1447,Gallery_fMRI,2021.2.3,None,
0:4,None,2,cat.jpg,Animal,ArrowUp.png,None,None,0,4,4,0,,,,,0,3,3,2,,,,,,,90.50823360006325,None,,,,,,,,,2,0.07967530004680157,90.3949352002237,None,90.3949352002237,None,,001,2021_Nov_10_1447,Gallery_fMRI,2021.2.3,None,
0:4,,,,,,,,0,4,4,0,,,,,,,,,,,,,,,,,,,,,,,,,,,,,,,,001,2021_Nov_10_1447,Gallery_fMRI,2021.2.3,None,
44:48,None,1,sofa.jpg,Furniture,ArrowLeft.png,None,None,0,5,5,11,0,0,0,1,,,,,,,,,,,92.91065690014511,None,2,0.34212899999693036,92.54444360011257,None,92.54444360011257,None,92.54444360011257,None,,,,,,,,001,2021_Nov_10_1447,Gallery_fMRI,2021.2.3,None,
44:48,None,2,rocking_chair.jpg,Furniture,ArrowUp.png,None,None,0,5,5,11,0,1,1,0,,,,,,,,,,,94.04500860022381,None,2,0.09408960002474487,93.92669120011851,None,93.92669120011851,None,93.92669120011851,None,,,,,,,,001,2021_Nov_10_1447,Gallery_fMRI,2021.2.3,None,
44:48,None,2,table.jpg,Furniture,ArrowUp.png,None,None,0,5,5,11,0,2,2,3,,,,,,,,,,,95.39311210019514,None,2,0.23040999984368682,95.1137090001721,None,95.1137090001721,None,95.1137090001721,None,,,,,,,,001,2021_Nov_10_1447,Gallery_fMRI,2021.2.3,None,
44:48,None,3,stool.jpg,Furniture,ArrowRight.png,None,None,0,5,5,11,0,3,3,2,,,,,,,,,,,96.6167508000508,None,2,0.04570969985798001,96.47780019999482,None,96.47780019999482,None,96.47780019999482,None,,,,,,,,001,2021_Nov_10_1447,Gallery_fMRI,2021.2.3,None,
44:48,None,1,sofa.jpg,Furniture,ArrowLeft.png,None,None,0,5,5,11,,,,,0,0,0,1,,,,,,,97.84721630020067,None,,,,,,,,,2,0.05302210012450814,97.71111160004511,None,97.71111160004511,None,,001,2021_Nov_10_1447,Gallery_fMRI,2021.2.3,None,
44:48,None,2,rocking_chair.jpg,Furniture,ArrowUp.png,None,None,0,5,5,11,,,,,0,1,1,0,,,,,,,99.11367860017344,None,,,,,,,,,2,0.1703725999686867,98.84842440020293,None,98.84842440020293,None,,001,2021_Nov_10_1447,Gallery_fMRI,2021.2.3,None,
44:48,None,2,table.jpg,Furniture,ArrowUp.png,None,None,0,5,5,11,,,,,0,2,2,3,,,,,,,100.34736650018021,None,,,,,,,,,2,0.18257599999196827,100.11569770006463,None,100.11569770006463,None,,001,2021_Nov_10_1447,Gallery_fMRI,2021.2.3,None,
44:48,None,3,stool.jpg,Furniture,ArrowRight.png,None,None,0,5,5,11,,,,,0,3,3,2,,,,,,,101.8295511000324,None,,,,,,,,,2,0.3923619999550283,101.34948720014654,None,101.34948720014654,None,,001,2021_Nov_10_1447,Gallery_fMRI,2021.2.3,None,
44:48,,,,,,,,0,5,5,11,,,,,,,,,,,,,,,,,,,,,,,,,,,,,,,,001,2021_Nov_10_1447,Gallery_fMRI,2021.2.3,None,
12:16,None,3,lynx.jpg,Animal,ArrowRight.png,None,None,0,6,6,3,0,0,0,1,,,,,,,,,,,104.41586580011062,None,2,0.4186013999860734,103.97195610008202,None,103.97195610008202,None,103.97195610008202,None,,,,,,,,001,2021_Nov_10_1447,Gallery_fMRI,2021.2.3,None,
12:16,None,2,platypus.jpg,Animal,ArrowUp.png,None,None,0,6,6,3,0,1,1,2,,,,,,,,,,,105.76651330012828,None,2,0.2528349000494927,105.47970890020952,None,105.47970890020952,None,105.47970890020952,None,,,,,,,,001,2021_Nov_10_1447,Gallery_fMRI,2021.2.3,None,
12:16,None,1,rhino.jpg,Animal,ArrowLeft.png,None,None,0,6,6,3,0,2,2,3,,,,,,,,,,,107.1506010000594,None,2,0.35447630006819963,106.7825571000576,None,106.7825571000576,None,106.7825571000576,None,,,,,,,,001,2021_Nov_10_1447,Gallery_fMRI,2021.2.3,None,
12:16,None,1,lioness.jpg,Animal,ArrowLeft.png,None,None,0,6,6,3,0,3,3,0,,,,,,,,,,,108.3837300001178,None,2,0.14248410006985068,108.15329500008374,None,108.15329500008374,None,108.15329500008374,None,,,,,,,,001,2021_Nov_10_1447,Gallery_fMRI,2021.2.3,None,
12:16,None,2,platypus.jpg,Animal,ArrowUp.png,None,None,0,6,6,3,,,,,0,0,0,2,,,,,,,109.6501009000931,None,,,,,,,,,2,0.2138933001551777,109.40157640003599,None,109.40157640003599,None,,001,2021_Nov_10_1447,Gallery_fMRI,2021.2.3,None,
12:16,None,1,rhino.jpg,Animal,ArrowLeft.png,None,None,0,6,6,3,,,,,0,1,1,3,,,,,,,111.0358119001612,None,,,,,,,,,2,0.3103893999941647,110.65444579999894,None,110.65444579999894,None,,001,2021_Nov_10_1447,Gallery_fMRI,2021.2.3,None,
12:16,None,1,lioness.jpg,Animal,ArrowLeft.png,None,None,0,6,6,3,,,,,0,2,2,0,,,,,,,112.41966670006514,None,,,,,,,,,2,0.29149580001831055,112.03817360009998,None,112.03817360009998,None,,001,2021_Nov_10_1447,Gallery_fMRI,2021.2.3,None,
12:16,None,3,lynx.jpg,Animal,ArrowRight.png,None,None,0,6,6,3,,,,,0,3,3,1,,,,,,,113.6682994000148,None,,,,,,,,,2,0.20441890018992126,113.42202790011652,None,113.42202790011652,None,,001,2021_Nov_10_1447,Gallery_fMRI,2021.2.3,None,
12:16,,,,,,,,0,6,6,3,,,,,,,,,,,,,,,,,,,,,,,,,,,,,,,,001,2021_Nov_10_1447,Gallery_fMRI,2021.2.3,None,
8:12,None,2,kangaroo.jpg,Animal,ArrowUp.png,None,None,0,7,7,2,0,0,0,3,,,,,,,,,,,115.97184680006467,None,2,0.2416465999558568,115.70321730012074,None,115.70321730012074,None,115.70321730012074,None,,,,,,,,001,2021_Nov_10_1447,Gallery_fMRI,2021.2.3,None,
8:12,None,2,giraffe.jpg,Animal,ArrowUp.png,None,None,0,7,7,2,0,1,1,0,,,,,,,,,,,117.20521520008333,None,2,0.14953799988143146,117.03571310010739,None,117.03571310010739,None,117.03571310010739,None,,,,,,,,001,2021_Nov_10_1447,Gallery_fMRI,2021.2.3,None,
8:12,None,3,horse.jpg,Animal,ArrowRight.png,None,None,0,7,7,2,0,2,2,2,,,,,,,,,,,118.48914190009236,None,2,0.24930719984695315,118.22377490019426,None,118.22377490019426,None,118.22377490019426,None,,,,,,,,001,2021_Nov_10_1447,Gallery_fMRI,2021.2.3,None,
8:12,None,1,hippopotamus.jpg,Animal,ArrowLeft.png,None,None,0,7,7,2,0,3,3,1,,,,,,,,,,,119.83446560008451,None,2,0.18569399998523295,119.55810720007867,None,119.55810720007867,None,119.55810720007867,None,,,,,,,,001,2021_Nov_10_1447,Gallery_fMRI,2021.2.3,None,
8:12,None,2,kangaroo.jpg,Animal,ArrowUp.png,None,None,0,7,7,2,,,,,0,0,0,3,,,,,,,120.95682380022481,None,,,,,,,,,2,0.08022839995101094,120.85677539999597,None,120.85677539999597,None,,001,2021_Nov_10_1447,Gallery_fMRI,2021.2.3,None,
8:12,None,1,hippopotamus.jpg,Animal,ArrowLeft.png,None,None,0,7,7,2,,,,,0,1,1,1,,,,,,,122.10749600012787,None,,,,,,,,,2,0.13008709996938705,121.95924350013956,None,121.95924350013956,None,,001,2021_Nov_10_1447,Gallery_fMRI,2021.2.3,None,
8:12,None,3,horse.jpg,Animal,ArrowRight.png,None,None,0,7,7,2,,,,,0,2,2,2,,,,,,,123.37476340006106,None,,,,,,,,,2,0.18346359999850392,123.11014770017937,None,123.11014770017937,None,,001,2021_Nov_10_1447,Gallery_fMRI,2021.2.3,None,
8:12,None,2,giraffe.jpg,Animal,ArrowUp.png,None,None,0,7,7,2,,,,,0,3,3,0,,,,,,,124.62525510019623,None,,,,,,,,,2,0.21646519983187318,124.3773669002112,None,124.3773669002112,None,,001,2021_Nov_10_1447,Gallery_fMRI,2021.2.3,None,
8:12,,,,,,,,0,7,7,2,,,,,,,,,,,,,,,,,,,,,,,,,,,,,,,,001,2021_Nov_10_1447,Gallery_fMRI,2021.2.3,None,
40:44,None,3,lectern.jpg,Furniture,ArrowRight.png,None,None,0,8,8,10,0,0,0,3,,,,,,,,,,,127.10998160019517,None,2,0.2839415001217276,126.79078500019386,None,126.79078500019386,None,126.79078500019386,None,,,,,,,,001,2021_Nov_10_1447,Gallery_fMRI,2021.2.3,None,
40:44,None,1,lamp.jpg,Furniture,ArrowLeft.png,None,None,0,8,8,10,0,1,1,2,,,,,,,,,,,128.4752474001143,None,2,0.27421270008198917,128.17828049999662,None,128.17828049999662,None,128.17828049999662,None,,,,,,,,001,2021_Nov_10_1447,Gallery_fMRI,2021.2.3,None,
40:44,None,2,filling_cabinet.jpg,Furniture,ArrowUp.png,None,None,0,8,8,10,0,2,2,1,,,,,,,,,,,129.9964006000664,None,2,0.34090229985304177,129.55978830019012,None,129.55978830019012,None,129.55978830019012,None,,,,,,,,001,2021_Nov_10_1447,Gallery_fMRI,2021.2.3,None,
40:44,None,3,couch.jpg,Furniture,ArrowRight.png,None,None,0,8,8,10,0,3,3,0,,,,,,,,,,,131.32853940012865,None,2,0.2852821000851691,131.0276706002187,None,131.0276706002187,None,131.0276706002187,None,,,,,,,,001,2021_Nov_10_1447,Gallery_fMRI,2021.2.3,None,
40:44,None,3,lectern.jpg,Furniture,ArrowRight.png,None,None,0,8,8,10,,,,,0,0,0,3,,,,,,,132.5458370000124,None,,,,,,,,,2,0.12255219998769462,132.38863860000856,None,132.38863860000856,None,,001,2021_Nov_10_1447,Gallery_fMRI,2021.2.3,None,
40:44,None,3,couch.jpg,Furniture,ArrowRight.png,None,None,0,8,8,10,,,,,0,1,1,0,,,,,,,133.76972550014034,None,,,,,,,,,2,0.13839480001479387,133.54795440007,None,133.54795440007,None,,001,2021_Nov_10_1447,Gallery_fMRI,2021.2.3,None,
40:44,None,1,lamp.jpg,Furniture,ArrowLeft.png,None,None,0,8,8,10,,,,,0,2,2,2,,,,,,,135.01429940015078,None,,,,,,,,,2,0.14691959996707737,134.78194640018046,None,134.78194640018046,None,,001,2021_Nov_10_1447,Gallery_fMRI,2021.2.3,None,
40:44,None,2,filling_cabinet.jpg,Furniture,ArrowUp.png,None,None,0,8,8,10,,,,,0,3,3,1,,,,,,,136.21403860021383,None,,,,,,,,,2,0.12972900015302002,136.06621180009097,None,136.06621180009097,None,,001,2021_Nov_10_1447,Gallery_fMRI,2021.2.3,None,
40:44,,,,,,,,0,8,8,10,,,,,,,,,,,,,,,,,,,,,,,,,,,,,,,,001,2021_Nov_10_1447,Gallery_fMRI,2021.2.3,None,
28:32,None,1,skateboard.jpg,Vehicles,ArrowLeft.png,None,None,0,9,9,7,0,0,0,2,,,,,,,,,,,138.61535520013422,None,2,0.2979431999847293,138.29085610015318,None,138.29085610015318,None,138.29085610015318,None,,,,,,,,001,2021_Nov_10_1447,Gallery_fMRI,2021.2.3,None,
28:32,None,3,scooter.jpg,Vehicles,ArrowRight.png,None,None,0,9,9,7,0,1,1,0,,,,,,,,,,,139.96578430011868,None,2,0.23553519998677075,139.67361380020157,None,139.67361380020157,None,139.67361380020157,None,,,,,,,,001,2021_Nov_10_1447,Gallery_fMRI,2021.2.3,None,
28:32,None,3,tractor.jpg,Vehicles,ArrowRight.png,None,None,0,9,9,7,0,2,2,3,,,,,,,,,,,141.28196829999797,None,2,0.21362369996495545,140.99978750012815,None,140.99978750012815,None,140.99978750012815,None,,,,,,,,001,2021_Nov_10_1447,Gallery_fMRI,2021.2.3,None,
28:32,None,2,ship.jpg,Vehicles,ArrowUp.png,None,None,0,9,9,7,0,3,3,1,,,,,,,,,,,142.6503397000488,None,2,0.1984504999127239,142.36181930010207,None,142.36181930010207,None,142.36181930010207,None,,,,,,,,001,2021_Nov_10_1447,Gallery_fMRI,2021.2.3,None,
28:32,None,2,ship.jpg,Vehicles,ArrowUp.png,None,None,0,9,9,7,,,,,0,0,0,1,,,,,,,143.934961900115,None,,,,,,,,,2,0.1641125997994095,143.74560630018823,None,143.74560630018823,None,,001,2021_Nov_10_1447,Gallery_fMRI,2021.2.3,None,
28:32,None,3,scooter.jpg,Vehicles,ArrowRight.png,None,None,0,9,9,7,,,,,0,1,1,0,,,,,,,145.68052760022692,None,,,,,,,,,1,0.5727599000092596,145.01785560022108,None,145.01785560022108,None,,001,2021_Nov_10_1447,Gallery_fMRI,2021.2.3,None,
28:32,None,3,tractor.jpg,Vehicles,ArrowRight.png,None,None,0,9,9,7,,,,,0,2,2,3,,,,,,,147.06931660021655,None,,,,,,,,,3,0.29573859996162355,146.68792140018195,None,146.68792140018195,None,,001,2021_Nov_10_1447,Gallery_fMRI,2021.2.3,None,
28:32,None,1,skateboard.jpg,Vehicles,ArrowLeft.png,None,None,0,9,9,7,,,,,0,3,3,2,,,,,,,148.35383030003868,None,,,,,,,,,2,0.26062819990329444,148.0713927000761,None,148.0713927000761,None,,001,2021_Nov_10_1447,Gallery_fMRI,2021.2.3,None,
28:32,,,,,,,,0,9,9,7,,,,,,,,,,,,,,,,,,,,,,,,,,,,,,,,001,2021_Nov_10_1447,Gallery_fMRI,2021.2.3,None,
36:40,None,3,bookcase.jpg,Furniture,ArrowRight.png,None,None,0,10,10,9,0,0,0,1,,,,,,,,,,,150.80404350021854,None,1,0.26557169994339347,150.5195390000008,None,150.5195390000008,None,150.5195390000008,None,,,,,,,,001,2021_Nov_10_1447,Gallery_fMRI,2021.2.3,None,
36:40,None,1,Chest_of_drawers.jpg,Furniture,ArrowLeft.png,None,None,0,10,10,9,0,1,1,3,,,,,,,,,,,152.2053630000446,None,1,0.2875324001070112,151.8919329000637,None,151.8919329000637,None,151.8919329000637,None,,,,,,,,001,2021_Nov_10_1447,Gallery_fMRI,2021.2.3,None,
36:40,None,2,chair.jpg,Furniture,ArrowUp.png,None,None,0,10,10,9,0,2,2,2,,,,,,,,,,,153.4213007001672,None,1,0.03795100003480911,153.2881104000844,None,153.2881104000844,None,153.2881104000844,None,,,,,,,,001,2021_Nov_10_1447,Gallery_fMRI,2021.2.3,None,
36:40,None,1,bedside_table.jpg,Furniture,ArrowLeft.png,None,None,0,10,10,9,0,3,3,0,,,,,,,,,,,154.82283910014667,None,1,0.2782789000775665,154.50450120004825,None,154.50450120004825,None,154.50450120004825,None,,,,,,,,001,2021_Nov_10_1447,Gallery_fMRI,2021.2.3,None,
36:40,None,2,chair.jpg,Furniture,ArrowUp.png,None,None,0,10,10,9,,,,,0,0,0,2,,,,,,,156.18805210012943,None,,,,,,,,,1,0.22717590001411736,155.88912270008586,None,155.88912270008586,None,,001,2021_Nov_10_1447,Gallery_fMRI,2021.2.3,None,
36:40,None,3,bookcase.jpg,Furniture,ArrowRight.png,None,None,0,10,10,9,,,,,0,1,1,1,,,,,,,157.42376830009744,None,,,,,,,,,1,0.15125359990634024,157.19227310013957,None,157.19227310013957,None,,001,2021_Nov_10_1447,Gallery_fMRI,2021.2.3,None,
36:40,None,1,Chest_of_drawers.jpg,Furniture,ArrowLeft.png,None,None,0,10,10,9,,,,,0,2,2,3,,,,,,,158.87524260021746,None,,,,,,,,,1,0.35132499993778765,158.45963340019807,None,158.45963340019807,None,,001,2021_Nov_10_1447,Gallery_fMRI,2021.2.3,None,
36:40,None,1,bedside_table.jpg,Furniture,ArrowLeft.png,None,None,0,10,10,9,,,,,0,3,3,0,,,,,,,160.2251015000511,None,,,,,,,,,1,0.18414300004951656,159.9479844002053,None,159.9479844002053,None,,001,2021_Nov_10_1447,Gallery_fMRI,2021.2.3,None,
36:40,,,,,,,,0,10,10,9,,,,,,,,,,,,,,,,,,,,,,,,,,,,,,,,001,2021_Nov_10_1447,Gallery_fMRI,2021.2.3,None,
32:36,None,2,bed.jpg,Furniture,ArrowUp.png,None,None,0,11,11,8,0,0,0,3,,,,,,,,,,,162.7766411001794,None,1,0.4455017000436783,162.30028320010751,None,162.30028320010751,None,162.30028320010751,None,,,,,,,,001,2021_Nov_10_1447,Gallery_fMRI,2021.2.3,None,
32:36,None,2,train,Vehicles,ArrowUp.png,None,None,0,11,11,8,0,1,1,0,,,,,,,,,,,164.16052570007741,None,2,0.27532660006545484,163.86803240003064,None,163.86803240003064,None,163.86803240003064,None,,,,,,,,001,2021_Nov_10_1447,Gallery_fMRI,2021.2.3,None,
32:36,None,3,armchair.jpg,Furniture,ArrowRight.png,None,None,0,11,11,8,0,2,2,2,,,,,,,,,,,165.56199970003217,None,3,0.2796070999465883,165.24996650009416,None,165.24996650009416,None,165.24996650009416,None,,,,,,,,001,2021_Nov_10_1447,Gallery_fMRI,2021.2.3,None,
32:36,None,1,van.jpg,Vehicles,ArrowLeft.png,None,None,0,11,11,8,0,3,3,1,,,,,,,,,,,166.99512140010484,None,2,0.37713470007292926,166.5939415001776,None,166.5939415001776,None,166.5939415001776,None,,,,,,,,001,2021_Nov_10_1447,Gallery_fMRI,2021.2.3,None,
32:36,None,2,train,Vehicles,ArrowUp.png,None,None,0,11,11,8,,,,,0,0,0,0,,,,,,,168.4932217001915,None,,,,,,,,,1,0.31273930007591844,168.09505680017173,None,168.09505680017173,None,,001,2021_Nov_10_1447,Gallery_fMRI,2021.2.3,None,
32:36,None,1,van.jpg,Vehicles,ArrowLeft.png,None,None,0,11,11,8,,,,,0,1,1,1,,,,,,,169.79627260006964,None,,,,,,,,,1,0.2733553000725806,169.49895460018888,None,169.49895460018888,None,,001,2021_Nov_10_1447,Gallery_fMRI,2021.2.3,None,
32:36,None,3,armchair.jpg,Furniture,ArrowRight.png,None,None,0,11,11,8,,,,,0,2,2,2,,,,,,,171.54710950003937,None,,,,,,,,,2,0.5963216999080032,170.87993610021658,None,170.87993610021658,None,,001,2021_Nov_10_1447,Gallery_fMRI,2021.2.3,None,
32:36,None,2,bed.jpg,Furniture,ArrowUp.png,None,None,0,11,11,8,,,,,0,3,3,3,,,,,,,172.93097990006208,None,,,,,,,,,3,0.355917900102213,172.54990530014038,None,172.54990530014038,None,,001,2021_Nov_10_1447,Gallery_fMRI,2021.2.3,None,
32:36,,,,,,,,0,11,11,8,,,,,,,,,,,,,,,,,,,,,,,,,,,,,,,,001,2021_Nov_10_1447,Gallery_fMRI,2021.2.3,None,
24:28,None,2,paragliding.jpg,Vehicles,ArrowUp.png,None,None,1,0,12,6,0,0,0,2,,,,,,,,,,,175.54918540013023,None,1,0.4624547001440078,175.01424750010483,None,175.01424750010483,None,175.01424750010483,None,,,,,,,,001,2021_Nov_10_1447,Gallery_fMRI,2021.2.3,None,
24:28,None,1,plane.jpg,Vehicles,ArrowLeft.png,None,None,1,0,12,6,0,1,1,3,,,,,,,,,,,176.93294300022535,None,2,0.2954080000054091,176.5503927001264,None,176.5503927001264,None,176.5503927001264,None,,,,,,,,001,2021_Nov_10_1447,Gallery_fMRI,2021.2.3,None,
24:28,None,1,cart.jpg,Vehicles,ArrowLeft.png,None,None,1,0,12,6,0,2,2,0,,,,,,,,,,,178.31493950006552,None,3,0.2795246001332998,177.93594600004144,None,177.93594600004144,None,177.93594600004144,None,,,,,,,,001,2021_Nov_10_1447,Gallery_fMRI,2021.2.3,None,
24:28,None,3,motorbike.jpg,Vehicles,ArrowRight.png,None,None,1,0,12,6,0,3,3,1,,,,,,,,,,,179.63415100006387,None,2,0.22156460001133382,179.38286710018292,None,179.38286710018292,None,179.38286710018292,None,,,,,,,,001,2021_Nov_10_1447,Gallery_fMRI,2021.2.3,None,
24:28,None,3,motorbike.jpg,Vehicles,ArrowRight.png,None,None,1,0,12,6,,,,,0,0,0,1,,,,,,,181.0016385000199,None,,,,,,,,,3,0.24139159987680614,180.73435320006683,None,180.73435320006683,None,,001,2021_Nov_10_1447,Gallery_fMRI,2021.2.3,None,
24:28,None,1,cart.jpg,Vehicles,ArrowLeft.png,None,None,1,0,12,6,,,,,0,1,1,0,,,,,,,182.48360030003823,None,,,,,,,,,2,0.3925242000259459,182.06833660020493,None,182.06833660020493,None,,001,2021_Nov_10_1447,Gallery_fMRI,2021.2.3,None,
24:28,None,1,plane.jpg,Vehicles,ArrowLeft.png,None,None,1,0,12,6,,,,,0,2,2,3,,,,,,,183.86751020001248,None,,,,,,,,,1,0.31041970010846853,183.48804780002683,None,183.48804780002683,None,,001,2021_Nov_10_1447,Gallery_fMRI,2021.2.3,None,
24:28,None,2,paragliding.jpg,Vehicles,ArrowUp.png,None,None,1,0,12,6,,,,,0,3,3,2,,,,,,,185.1534788000863,None,,,,,,,,,2,0.262016799999401,184.87180690001696,None,184.87180690001696,None,,001,2021_Nov_10_1447,Gallery_fMRI,2021.2.3,None,
24:28,,,,,,,,1,0,12,6,,,,,,,,,,,,,,,,,,,,,,,,,,,,,,,,001,2021_Nov_10_1447,Gallery_fMRI,2021.2.3,None,
4:8,None,3,cow.jpg,Animal,ArrowRight.png,None,None,1,1,13,1,0,0,0,0,,,,,,,,,,,187.60514570004307,None,3,0.2722263000905514,187.31079880008474,None,187.31079880008474,None,187.31079880008474,None,,,,,,,,001,2021_Nov_10_1447,Gallery_fMRI,2021.2.3,None,
4:8,None,3,elephant.jpg,Animal,ArrowRight.png,None,None,1,1,13,1,0,1,1,3,,,,,,,,,,,188.98847290012054,None,1,0.3146794999483973,188.60585760022514,None,188.60585760022514,None,188.60585760022514,None,,,,,,,,001,2021_Nov_10_1447,Gallery_fMRI,2021.2.3,None,
4:8,None,2,crocodile.jpg,Animal,ArrowUp.png,None,None,1,1,13,1,0,2,2,1,,,,,,,,,,,190.35584790003486,None,3,0.2323158998042345,190.06621670001186,None,190.06621670001186,None,190.06621670001186,None,,,,,,,,001,2021_Nov_10_1447,Gallery_fMRI,2021.2.3,None,
4:8,None,1,dromedary.jpg,Animal,ArrowLeft.png,None,None,1,1,13,1,0,3,3,2,,,,,,,,,,,191.5228676002007,None,3,0.10830170009285212,191.3905541000422,None,191.3905541000422,None,191.3905541000422,None,,,,,,,,001,2021_Nov_10_1447,Gallery_fMRI,2021.2.3,None,
4:8,None,3,cow.jpg,Animal,ArrowRight.png,None,None,1,1,13,1,,,,,0,0,0,0,,,,,,,192.8236193000339,None,,,,,,,,,3,0.18271660013124347,192.62187570007518,None,192.62187570007518,None,,001,2021_Nov_10_1447,Gallery_fMRI,2021.2.3,None,
4:8,None,1,dromedary.jpg,Animal,ArrowLeft.png,None,None,1,1,13,1,,,,,0,1,1,2,,,,,,,194.157812200021,None,,,,,,,,,3,0.1897797998972237,193.89076100010425,None,193.89076100010425,None,,001,2021_Nov_10_1447,Gallery_fMRI,2021.2.3,None,
4:8,None,3,elephant.jpg,Animal,ArrowRight.png,None,None,1,1,13,1,,,,,0,2,2,3,,,,,,,195.40888150013052,None,,,,,,,,,3,0.1860225999262184,195.16077430010773,None,195.16077430010773,None,,001,2021_Nov_10_1447,Gallery_fMRI,2021.2.3,None,
4:8,None,2,crocodile.jpg,Animal,ArrowUp.png,None,None,1,1,13,1,,,,,0,3,3,1,,,,,,,196.808918800205,None,,,,,,,,,3,0.29875089996494353,196.4833285000641,None,196.4833285000641,None,,001,2021_Nov_10_1447,Gallery_fMRI,2021.2.3,None,
4:8,,,,,,,,1,1,13,1,,,,,,,,,,,,,,,,,,,,,,,,,,,,,,,,001,2021_Nov_10_1447,Gallery_fMRI,2021.2.3,None,
8:12,None,2,giraffe.jpg,Animal,ArrowUp.png,None,None,1,2,14,2,0,0,0,0,,,,,,,,,,,199.41020450019278,None,3,0.43575800000689924,198.89276440022513,None,198.89276440022513,None,198.89276440022513,None,,,,,,,,001,2021_Nov_10_1447,Gallery_fMRI,2021.2.3,None,
8:12,None,3,horse.jpg,Animal,ArrowRight.png,None,None,1,2,14,2,0,1,1,2,,,,,,,,,,,200.79408470005728,None,3,0.24565430008806288,200.4989493000321,None,200.4989493000321,None,200.4989493000321,None,,,,,,,,001,2021_Nov_10_1447,Gallery_fMRI,2021.2.3,None,
8:12,None,1,hippopotamus.jpg,Animal,ArrowLeft.png,None,None,1,2,14,2,0,2,2,1,,,,,,,,,,,202.04498630017042,None,3,0.22972129983827472,201.79584970022552,None,201.79584970022552,None,201.79584970022552,None,,,,,,,,001,2021_Nov_10_1447,Gallery_fMRI,2021.2.3,None,
8:12,None,2,kangaroo.jpg,Animal,ArrowUp.png,None,None,1,2,14,2,0,3,3,3,,,,,,,,,,,203.41178670013323,None,3,0.23100450006313622,203.11751680006273,None,203.11751680006273,None,203.11751680006273,None,,,,,,,,001,2021_Nov_10_1447,Gallery_fMRI,2021.2.3,None,
8:12,None,2,giraffe.jpg,Animal,ArrowUp.png,None,None,1,2,14,2,,,,,0,0,0,0,,,,,,,204.72909610019997,None,,,,,,,,,3,0.2449967002030462,204.46225810004398,None,204.46225810004398,None,,001,2021_Nov_10_1447,Gallery_fMRI,2021.2.3,None,
8:12,None,3,horse.jpg,Animal,ArrowRight.png,None,None,1,2,14,2,,,,,0,1,1,2,,,,,,,206.1113538001664,None,,,,,,,,,3,0.29900540015660226,205.7312302000355,None,205.7312302000355,None,,001,2021_Nov_10_1447,Gallery_fMRI,2021.2.3,None,
8:12,None,2,kangaroo.jpg,Animal,ArrowUp.png,None,None,1,2,14,2,,,,,0,2,2,3,,,,,,,207.51381620019674,None,,,,,,,,,3,0.36726669990457594,207.11537090013735,None,207.11537090013735,None,,001,2021_Nov_10_1447,Gallery_fMRI,2021.2.3,None,
8:12,None,1,hippopotamus.jpg,Animal,ArrowLeft.png,None,None,1,2,14,2,,,,,0,3,3,1,,,,,,,208.88185330014676,None,,,,,,,,,3,0.2593653001822531,208.5862796001602,None,208.5862796001602,None,,001,2021_Nov_10_1447,Gallery_fMRI,2021.2.3,None,
8:12,,,,,,,,1,2,14,2,,,,,,,,,,,,,,,,,,,,,,,,,,,,,,,,001,2021_Nov_10_1447,Gallery_fMRI,2021.2.3,None,
36:40,None,3,bookcase.jpg,Furniture,ArrowRight.png,None,None,1,3,15,9,0,0,0,1,,,,,,,,,,,211.26544820005074,None,3,0.2708044999744743,210.964032900054,None,210.964032900054,None,210.964032900054,None,,,,,,,,001,2021_Nov_10_1447,Gallery_fMRI,2021.2.3,None,
36:40,None,1,bedside_table.jpg,Furniture,ArrowLeft.png,None,None,1,3,15,9,0,1,1,0,,,,,,,,,,,212.5860928001348,None,3,0.1581677000503987,212.33157210005447,None,212.33157210005447,None,212.33157210005447,None,,,,,,,,001,2021_Nov_10_1447,Gallery_fMRI,2021.2.3,None,
36:40,None,1,Chest_of_drawers.jpg,Furniture,ArrowLeft.png,None,None,1,3,15,9,0,2,2,3,,,,,,,,,,,213.9982632000465,None,3,0.2859038000460714,213.60213240003213,None,213.60213240003213,None,213.60213240003213,None,,,,,,,,001,2021_Nov_10_1447,Gallery_fMRI,2021.2.3,None,
36:40,None,2,chair.jpg,Furniture,ArrowUp.png,None,None,1,3,15,9,0,3,3,2,,,,,,,,,,,215.10055510001257,None,3,0.007592400070279837,215.06336390017532,None,215.06336390017532,None,215.06336390017532,None,,,,,,,,001,2021_Nov_10_1447,Gallery_fMRI,2021.2.3,None,
36:40,None,3,bookcase.jpg,Furniture,ArrowRight.png,None,None,1,3,15,9,,,,,0,0,0,1,,,,,,,216.45115880016237,None,,,,,,,,,3,0.22335250000469387,216.18424360011704,None,216.18424360011704,None,,001,2021_Nov_10_1447,Gallery_fMRI,2021.2.3,None,
36:40,None,1,bedside_table.jpg,Furniture,ArrowLeft.png,None,None,1,3,15,9,,,,,0,1,1,0,,,,,,,217.81583490013145,None,,,,,,,,,3,0.2719278000295162,217.45349770016037,None,217.45349770016037,None,,001,2021_Nov_10_1447,Gallery_fMRI,2021.2.3,None,
36:40,None,1,Chest_of_drawers.jpg,Furniture,ArrowLeft.png,None,None,1,3,15,9,,,,,0,2,2,3,,,,,,,219.18567030015402,None,,,,,,,,,3,0.2711428999900818,218.82095510000363,None,218.82095510000363,None,,001,2021_Nov_10_1447,Gallery_fMRI,2021.2.3,None,
36:40,None,2,chair.jpg,Furniture,ArrowUp.png,None,None,1,3,15,9,,,,,0,3,3,2,,,,,,,220.43683030013926,None,,,,,,,,,3,0.18837759993039072,220.18816610006616,None,220.18816610006616,None,,001,2021_Nov_10_1447,Gallery_fMRI,2021.2.3,None,
36:40,,,,,,,,1,3,15,9,,,,,,,,,,,,,,,,,,,,,,,,,,,,,,,,001,2021_Nov_10_1447,Gallery_fMRI,2021.2.3,None,
16:20,None,3,turtle.jpg,Animal,ArrowRight.png,None,None,1,4,16,4,0,0,0,3,,,,,,,,,,,222.63742450019345,None,3,0.020366299897432327,222.51942380005494,None,222.51942380005494,None,222.51942380005494,None,,,,,,,,001,2021_Nov_10_1447,Gallery_fMRI,2021.2.3,None,
16:20,None,2,tapir.jpg,Animal,ArrowUp.png,None,None,1,4,16,4,0,1,1,1,,,,,,,,,,,224.17166560003534,None,3,0.5000041001476347,223.65344680007547,None,223.65344680007547,None,223.65344680007547,None,,,,,,,,001,2021_Nov_10_1447,Gallery_fMRI,2021.2.3,None,
16:20,None,1,tiger.jpg,Animal,ArrowLeft.png,None,None,1,4,16,4,0,2,2,2,,,,,,,,,,,225.55491679999977,None,3,0.2634274000301957,225.2530124001205,None,225.2530124001205,None,225.2530124001205,None,,,,,,,,001,2021_Nov_10_1447,Gallery_fMRI,2021.2.3,None,
16:20,None,3,snake.jpg,Animal,ArrowRight.png,None,None,1,4,16,4,0,3,3,0,,,,,,,,,,,226.91349060018547,None,3,0.2749832000117749,226.55680840020068,None,226.55680840020068,None,226.55680840020068,None,,,,,,,,001,2021_Nov_10_1447,Gallery_fMRI,2021.2.3,None,
16:20,None,3,turtle.jpg,Animal,ArrowRight.png,None,None,1,4,16,4,,,,,0,0,0,3,,,,,,,228.18994820001535,None,,,,,,,,,3,0.22776070004329085,227.93965000007302,None,227.93965000007302,None,,001,2021_Nov_10_1447,Gallery_fMRI,2021.2.3,None,
16:20,None,1,tiger.jpg,Animal,ArrowLeft.png,None,None,1,4,16,4,,,,,0,1,1,2,,,,,,,229.45742950006388,None,,,,,,,,,3,0.2490944000892341,229.19229720020667,None,229.19229720020667,None,,001,2021_Nov_10_1447,Gallery_fMRI,2021.2.3,None,
16:20,None,2,tapir.jpg,Animal,ArrowUp.png,None,None,1,4,16,4,,,,,0,2,2,1,,,,,,,230.80782280000858,None,,,,,,,,,3,0.26946089998818934,230.51826260006055,None,230.51826260006055,None,,001,2021_Nov_10_1447,Gallery_fMRI,2021.2.3,None,
16:20,None,3,snake.jpg,Animal,ArrowRight.png,None,None,1,4,16,4,,,,,0,3,3,0,,,,,,,232.3187933000736,None,,,,,,,,,3,0.43003290006890893,231.8105213001836,None,231.8105213001836,None,,001,2021_Nov_10_1447,Gallery_fMRI,2021.2.3,None,
16:20,,,,,,,,1,4,16,4,,,,,,,,,,,,,,,,,,,,,,,,,,,,,,,,001,2021_Nov_10_1447,Gallery_fMRI,2021.2.3,None,
0:4,None,2,cat.jpg,Animal,ArrowUp.png,None,None,1,5,17,0,0,0,0,2,,,,,,,,,,,234.7930384001229,None,3,0.4065676999744028,234.35805490007624,None,234.35805490007624,None,234.35805490007624,None,,,,,,,,001,2021_Nov_10_1447,Gallery_fMRI,2021.2.3,None,
0:4,None,3,bat.jpg,Animal,ArrowRight.png,None,None,1,5,17,0,0,1,1,1,,,,,,,,,,,236.27733160019852,None,3,0.33268420002423227,235.85881340014748,None,235.85881340014748,None,235.85881340014748,None,,,,,,,,001,2021_Nov_10_1447,Gallery_fMRI,2021.2.3,None,
0:4,None,1,armadillo.jpg,Animal,ArrowLeft.png,None,10,1,5,17,0,0,2,2,0,,,,,,,,,,,237.64456170005724,None,3,0.22921880008652806,237.34728100011125,None,237.34728100011125,None,237.34728100011125,None,,,,,,,,001,2021_Nov_10_1447,Gallery_fMRI,2021.2.3,None,
0:4,None,1,cheetah.jpg,Animal,ArrowLeft.png,None,None,1,5,17,0,0,3,3,3,,,,,,,,,,,238.87827200000174,None,3,0.062090500025078654,238.7196119001601,None,238.7196119001601,None,238.7196119001601,None,,,,,,,,001,2021_Nov_10_1447,Gallery_fMRI,2021.2.3,None,
0:4,None,3,bat.jpg,Animal,ArrowRight.png,None,None,1,5,17,0,,,,,0,0,0,1,,,,,,,240.32706300006248,None,,,,,,,,,3,0.3114108999725431,239.92856040014885,None,239.92856040014885,None,,001,2021_Nov_10_1447,Gallery_fMRI,2021.2.3,None,
0:4,None,1,armadillo.jpg,Animal,ArrowLeft.png,None,10,1,5,17,0,,,,,0,1,1,0,,,,,,,241.71170100010931,None,,,,,,,,,3,0.30486389994621277,241.33167740004137,None,241.33167740004137,None,,001,2021_Nov_10_1447,Gallery_fMRI,2021.2.3,None,
0:4,None,2,cat.jpg,Animal,ArrowUp.png,None,None,1,5,17,0,,,,,0,2,2,2,,,,,,,243.0948305001948,None,,,,,,,,,3,0.300115599995479,242.71521470020525,None,242.71521470020525,None,,001,2021_Nov_10_1447,Gallery_fMRI,2021.2.3,None,
0:4,None,1,cheetah.jpg,Animal,ArrowLeft.png,None,None,1,5,17,0,,,,,0,3,3,3,,,,,,,244.49752070009708,None,,,,,,,,,3,0.37844990007579327,244.0996399000287,None,244.0996399000287,None,,001,2021_Nov_10_1447,Gallery_fMRI,2021.2.3,None,
0:4,,,,,,,,1,5,17,0,,,,,,,,,,,,,,,,,,,,,,,,,,,,,,,,001,2021_Nov_10_1447,Gallery_fMRI,2021.2.3,None,
40:44,None,1,lamp.jpg,Furniture,ArrowLeft.png,None,None,1,6,18,10,0,0,0,2,,,,,,,,,,,247.08597470005043,None,3,0.32834100001491606,246.6725418001879,None,246.6725418001879,None,246.6725418001879,None,,,,,,,,001,2021_Nov_10_1447,Gallery_fMRI,2021.2.3,None,
40:44,None,2,filling_cabinet.jpg,Furniture,ArrowUp.png,None,None,1,6,18,10,0,1,1,1,,,,,,,,,,,248.51611900003627,None,3,0.37650870019569993,248.11466920003295,None,248.11466920003295,None,248.11466920003295,None,,,,,,,,001,2021_Nov_10_1447,Gallery_fMRI,2021.2.3,None,
40:44,None,3,lectern.jpg,Furniture,ArrowRight.png,None,None,1,6,18,10,0,2,2,3,,,,,,,,,,,250.00130980019458,None,3,0.32590369996614754,249.58445570012555,None,249.58445570012555,None,249.58445570012555,None,,,,,,,,001,2021_Nov_10_1447,Gallery_fMRI,2021.2.3,None,
40:44,None,3,couch.jpg,Furniture,ArrowRight.png,None,None,1,6,18,10,0,3,3,0,,,,,,,,,,,251.24898330005817,None,3,0.1986364999320358,251.003109900048,None,251.003109900048,None,251.003109900048,None,,,,,,,,001,2021_Nov_10_1447,Gallery_fMRI,2021.2.3,None,
40:44,None,3,lectern.jpg,Furniture,ArrowRight.png,None,None,1,6,18,10,,,,,0,0,0,3,,,,,,,252.36833480000496,None,,,,,,,,,3,0.018575299996882677,252.33289530011825,None,252.33289530011825,None,,001,2021_Nov_10_1447,Gallery_fMRI,2021.2.3,None,
40:44,None,1,lamp.jpg,Furniture,ArrowLeft.png,None,None,1,6,18,10,,,,,0,1,1,2,,,,,,,253.58525520004332,None,,,,,,,,,3,0.07153859990648925,253.42825330002233,None,253.42825330002233,None,,001,2021_Nov_10_1447,Gallery_fMRI,2021.2.3,None,
