Task,corrAns,StimFile,Name,Proffession,Letter1,Letter2,Letter3,NotSeen,Encoding_Name.thisRepN,Encoding_Name.thisTrialN,Encoding_Name.thisN,Encoding_Name.thisIndex,Encoding_Profession.thisRepN,Encoding_Profession.thisTrialN,Encoding_Profession.thisN,Encoding_Profession.thisIndex,Recall_Name.thisRepN,Recall_Name.thisTrialN,Recall_Name.thisN,Recall_Name.thisIndex,Recall_Proffession.thisRepN,Recall_Proffession.thisTrialN,Recall_Proffession.thisN,Recall_Proffession.thisIndex,key_resp.keys,key_resp.rt,key_resp.started,key_resp.stopped,text_9.started,text_9.stopped,polygon_7.started,polygon_7.stopped,Jitter,key_resp_4.keys,key_resp_4.started,key_resp_4.stopped,image_3.started,image_3.stopped,text_8.started,text_8.stopped,text_10.started,text_10.stopped,polygon_8.started,polygon_8.stopped,text_6.started,text_6.stopped,polygon_5.started,polygon_5.stopped,key_resp_1.keys,key_resp_1.started,key_resp_1.stopped,image.started,image.stopped,text_4.started,text_4.stopped,text_7.started,text_7.stopped,polygon_6.started,polygon_6.stopped,participant,session,date,expName,psychopyVersion,frameRate,
,,,,,,,,,,,,,,,,,,,,,,,,,s,1.6616294999985257,12.761543900000106,None,,,,,,,,,,,,,,,,,,,,,,,,,,,,,,,,,001,2022_Nov_17_1210,FacesNamesProffessions_Encoding,2021.2.3,118.68464184918903,
encoding_name,3,Images_Faces/O39.jpg,Björn,0,J.,R.,B.,,0,0,0,8,,,,,,,,,,,,,,,,,29.46567420000065,34.4752701000034,34.43716149999818,None,6.0,None,36.50507310000103,None,36.50507310000103,None,36.50507310000103,None,,,,,,,,,,,,,,,,,,,,,001,2022_Nov_17_1210,FacesNamesProffessions_Encoding,2021.2.3,118.68464184918903,
encoding_name,1,Images_Faces/O34.jpg,Mats,0,M.,B.,R.,,0,1,1,3,,,,,,,,,,,,,,,,,,,,,8.5,None,46.47174809999706,None,46.47174809999706,None,46.47174809999706,None,,,,,,,,,,,,,,,,,,,,,001,2022_Nov_17_1210,FacesNamesProffessions_Encoding,2021.2.3,118.68464184918903,
encoding_name,3,Images_Faces/O36.jpg,Jonas,0,S.,K.,J.,,0,2,2,5,,,,,,,,,,,,,,,,,,,,,9.25,None,58.97960430000239,None,58.97960430000239,None,58.97960430000239,None,,,,,,,,,,,,,,,,,,,,,001,2022_Nov_17_1210,FacesNamesProffessions_Encoding,2021.2.3,118.68464184918903,
encoding_name,3,Images_Faces/O37.jpg,Ulf,0,N.,K.,U.,,0,3,3,6,,,,,,,,,,,,,,,,,,,,,7.0,None,72.24764999999752,None,72.24764999999752,None,72.24764999999752,None,,,,,,,,,,,,,,,,,,,,,001,2022_Nov_17_1210,FacesNamesProffessions_Encoding,2021.2.3,118.68464184918903,
encoding_name,2,Images_Faces/O45.jpg,Marcus,0,T.,M.,B.,,0,4,4,14,,,,,,,,,,,,,,,,,,,,,3.0,None,83.25478409999778,None,83.25478409999778,None,83.25478409999778,None,,,,,,,,,,,,,,,,,,,,,001,2022_Nov_17_1210,FacesNamesProffessions_Encoding,2021.2.3,118.68464184918903,
encoding_name,3,Images_Faces/O35.jpg,Henrik,0,B.,K.,H.,,0,5,5,4,,,,,,,,,,,,,,,,,,,,,9.5,None,90.27176619999955,None,90.27176619999955,None,90.27176619999955,None,,,,,,,,,,,,,,,,,,,,,001,2022_Nov_17_1210,FacesNamesProffessions_Encoding,2021.2.3,118.68464184918903,
encoding_name,3,Images_Faces/O31.jpg,Filip,0,P.,V.,F.,,0,6,6,0,,,,,,,,,,,,,,,,,,,,,8.0,None,103.78887329999998,None,103.78887329999998,None,103.78887329999998,None,,,,,,,,,,,,,,,,,,,,,001,2022_Nov_17_1210,FacesNamesProffessions_Encoding,2021.2.3,118.68464184918903,
encoding_name,2,Images_Faces/O42.jpg,Robert,0,D.,R.,J.,,0,7,7,11,,,,,,,,,,,,,,,,,,,,,8.5,None,115.79662549999921,None,115.79662549999921,None,115.79662549999921,None,,,,,,,,,,,,,,,,,,,,,001,2022_Nov_17_1210,FacesNamesProffessions_Encoding,2021.2.3,118.68464184918903,
encoding_name,1,Images_Faces/O44.jpg,Viktor,0,V.,C.,F.,,0,8,8,13,,,,,,,,,,,,,,,,,,,,,9.25,None,128.31387830000313,None,128.31387830000313,None,128.31387830000313,None,,,,,,,,,,,,,,,,,,,,,001,2022_Nov_17_1210,FacesNamesProffessions_Encoding,2021.2.3,118.68464184918903,
encoding_name,2,Images_Faces/O41.jpg,Christian,0,V.,C.,H.,,0,9,9,10,,,,,,,,,,,,,,,,,,,,,7.5,None,141.58935819999897,None,141.58935819999897,None,141.58935819999897,None,,,,,,,,,,,,,,,,,,,,,001,2022_Nov_17_1210,FacesNamesProffessions_Encoding,2021.2.3,118.68464184918903,
encoding_name,1,Images_Faces/O40.jpg,Axel,0,A.,M.,B.,,0,10,10,9,,,,,,,,,,,,,,,,,,,,,8.0,None,153.0965406000032,None,153.0965406000032,None,153.0965406000032,None,,,,,,,,,,,,,,,,,,,,,001,2022_Nov_17_1210,FacesNamesProffessions_Encoding,2021.2.3,118.68464184918903,
encoding_name,3,Images_Faces/O32.jpg,John,0,O.,I.,J.,,0,11,11,1,,,,,,,,,,,,,,,,,,,,,4.5,None,165.11397510000097,None,165.11397510000097,None,165.11397510000097,None,,,,,,,,,,,,,,,,,,,,,001,2022_Nov_17_1210,FacesNamesProffessions_Encoding,2021.2.3,118.68464184918903,
encoding_name,3,Images_Faces/O43.jpg,David,0,B.,H.,D.,,0,12,12,12,,,,,,,,,,,,,,,,,,,,,2.75,None,173.6223250000039,None,173.6223250000039,None,173.6223250000039,None,,,,,,,,,,,,,,,,,,,,,001,2022_Nov_17_1210,FacesNamesProffessions_Encoding,2021.2.3,118.68464184918903,
encoding_name,3,Images_Faces/O33.jpg,Mattias,0,T,E.,M.,,0,13,13,2,,,,,,,,,,,,,,,,,,,,,6.75,None,180.38974600000074,None,180.38974600000074,None,180.38974600000074,None,,,,,,,,,,,,,,,,,,,,,001,2022_Nov_17_1210,FacesNamesProffessions_Encoding,2021.2.3,118.68464184918903,
encoding_name,2,Images_Faces/O38.jpg,Leif,0,J.,L.,E.,,0,14,14,7,,,,,,,,,,,,,,,,,,,,,4.0,None,191.14745630000107,None,191.14745630000107,None,191.14745630000107,None,,,,,,,,,,,,,,,,,,,,,001,2022_Nov_17_1210,FacesNamesProffessions_Encoding,2021.2.3,118.68464184918903,
encoding_proffession,1,Images_Faces/SH42.png,0,Tandläkare,T.,B.,I.,,,,,,0,0,0,11,,,,,,,,,,,,,,,,,8.0,None,206.18013950000022,None,206.18013950000022,None,206.18013950000022,None,199.14593420000165,204.14899300000252,204.13191260000167,None,,,,,,,,,,,,,,,,,001,2022_Nov_17_1210,FacesNamesProffessions_Encoding,2021.2.3,118.68464184918903,
encoding_proffession,3,Images_Faces/SH34.png,0,Marknadsförare,P.,S.,M.,,,,,,0,1,1,3,,,,,,,,,,,,,,,,,5.5,None,218.18895619999967,None,218.18895619999967,None,218.18895619999967,None,,,,,,,,,,,,,,,,,,,,,001,2022_Nov_17_1210,FacesNamesProffessions_Encoding,2021.2.3,118.68464184918903,
encoding_proffession,3,Images_Faces/SH36.png,0,VVS-montör,A.,G.,V.,,,,,,0,2,2,5,,,,,,,,,,,,,,,,,9.5,None,227.68844009999884,None,227.68844009999884,None,227.68844009999884,None,,,,,,,,,,,,,,,,,,,,,001,2022_Nov_17_1210,FacesNamesProffessions_Encoding,2021.2.3,118.68464184918903,
encoding_proffession,2,Images_Faces/SH41.png,0,Säkerhetsvakt,P.,S.,J.,,,,,,0,3,3,10,,,,,,,,,,,,,,,,,3.25,None,241.2059145000021,None,241.2059145000021,None,241.2059145000021,None,,,,,,,,,,,,,,,,,,,,,001,2022_Nov_17_1210,FacesNamesProffessions_Encoding,2021.2.3,118.68464184918903,
encoding_proffession,1,Images_Faces/SH44.png,0,Försäkringsrådgivare,F.,T.,A.,,,,,,0,4,4,13,,,,,,,,,,,,,,,,,2.75,None,248.4723135000022,None,248.4723135000022,None,248.4723135000022,None,,,,,,,,,,,,,,,,,,,,,001,2022_Nov_17_1210,FacesNamesProffessions_Encoding,2021.2.3,118.68464184918903,
encoding_proffession,3,Images_Faces/SH45.png,0,Vetrinär,R.,M.,V.,,,,,,0,5,5,14,,,,,,,,,,,,,,,,,6.25,None,255.22246579999774,None,255.22246579999774,None,255.22246579999774,None,,,,,,,,,,,,,,,,,,,,,001,2022_Nov_17_1210,FacesNamesProffessions_Encoding,2021.2.3,118.68464184918903,
encoding_proffession,1,Images_Faces/SH33.png,0,Elektriker,E.,L.,S.,,,,,,0,6,6,2,,,,,,,,,,,,,,,,,5.25,None,265.4802389999968,None,265.4802389999968,None,265.4802389999968,None,,,,,,,,,,,,,,,,,,,,,001,2022_Nov_17_1210,FacesNamesProffessions_Encoding,2021.2.3,118.68464184918903,
encoding_proffession,3,Images_Faces/SH37.png,0,Brevbärare,Å.,C.,B.,,,,,,0,7,7,6,,,,,,,,,,,,,,,,,8.5,None,274.75606159999734,None,274.75606159999734,None,274.75606159999734,None,,,,,,,,,,,,,,,,,,,,,001,2022_Nov_17_1210,FacesNamesProffessions_Encoding,2021.2.3,118.68464184918903,
encoding_proffession,2,Images_Faces/SH38.png,0,Maskinoperatör,B.,M.,A.,,,,,,0,8,8,7,,,,,,,,,,,,,,,,,7.5,None,287.27272809999704,None,287.27272809999704,None,287.27272809999704,None,,,,,,,,,,,,,,,,,,,,,001,2022_Nov_17_1210,FacesNamesProffessions_Encoding,2021.2.3,118.68464184918903,
encoding_proffession,3,Images_Faces/SH35.png,0,Kock,L.,V.,K.,,,,,,0,9,9,4,,,,,,,,,,,,,,,,,5.5,None,298.7804329999999,None,298.7804329999999,None,298.7804329999999,None,,,,,,,,,,,,,,,,,,,,,001,2022_Nov_17_1210,FacesNamesProffessions_Encoding,2021.2.3,118.68464184918903,
encoding_proffession,1,Images_Faces/SH32.png,0,Skattehandläggare,S.,M.,H.,,,,,,0,10,10,1,,,,,,,,,,,,,,,,,4.75,None,308.28964570000244,None,308.28964570000244,None,308.28964570000244,None,,,,,,,,,,,,,,,,,,,,,001,2022_Nov_17_1210,FacesNamesProffessions_Encoding,2021.2.3,118.68464184918903,
encoding_proffession,3,Images_Faces/SH31.png,0,Fastighetsskötare,E.,M.,F.,,,,,,0,11,11,0,,,,,,,,,,,,,,,,,7.75,None,317.03949660000217,None,317.03949660000217,None,317.03949660000217,None,,,,,,,,,,,,,,,,,,,,,001,2022_Nov_17_1210,FacesNamesProffessions_Encoding,2021.2.3,118.68464184918903,
encoding_proffession,1,Images_Faces/SH39.png,0,Rektor,R.,H.,M.,,,,,,0,12,12,8,,,,,,,,,,,,,,,,,3.25,None,328.8061768999978,None,328.8061768999978,None,328.8061768999978,None,,,,,,,,,,,,,,,,,,,,,001,2022_Nov_17_1210,FacesNamesProffessions_Encoding,2021.2.3,118.68464184918903,
encoding_proffession,1,Images_Faces/SH40.png,0,Proffessor,P.,J.,N.,,,,,,0,13,13,9,,,,,,,,,,,,,,,,,3.5,None,336.07204980000097,None,336.07204980000097,None,336.07204980000097,None,,,,,,,,,,,,,,,,,,,,,001,2022_Nov_17_1210,FacesNamesProffessions_Encoding,2021.2.3,118.68464184918903,
encoding_proffession,3,Images_Faces/SH43.png,0,Arbetsledare,L.,K.,A.,,,,,,0,14,14,12,,,,,,,,,,,,,,,,,4.0,None,343.5894640999977,None,343.5894640999977,None,343.5894640999977,None,,,,,,,,,,,,,,,,,,,,,001,2022_Nov_17_1210,FacesNamesProffessions_Encoding,2021.2.3,118.68464184918903,
recall_names,1,Images_Faces/O6.jpg,Mikael,0,M.,C.,G.,NY,,,,,,,,,0,0,0,5,,,,,,,,,,,,,4.5,,,,,,,,,,,,351.5964148999992,356.59955920000357,356.5879330000025,None,None,358.6558655999979,None,358.6558655999979,None,358.6558655999979,None,,,,,,001,2022_Nov_17_1210,FacesNamesProffessions_Encoding,2021.2.3,118.68464184918903,
recall_names,3,Images_Faces/O2.jpg,Erik,0,R.,O.,E.,NY,,,,,,,,,0,1,1,1,,,,,,,,,,,,,6.5,,,,,,,,,,,,,,,,None,367.11394070000097,None,367.11394070000097,None,367.11394070000097,None,,,,,,001,2022_Nov_17_1210,FacesNamesProffessions_Encoding,2021.2.3,118.68464184918903,
recall_names,2,Images_Faces/O4.jpg,Anders,0,R.,A.,P.,NY,,,,,,,,,0,2,2,3,,,,,,,,,,,,,8.5,,,,,,,,,,,,,,,,None,377.6314369000029,None,377.6314369000029,None,377.6314369000029,None,,,,,,001,2022_Nov_17_1210,FacesNamesProffessions_Encoding,2021.2.3,118.68464184918903,
recall_names,2,Images_Faces/O1.jpg,Karl,0,F.,K.,L.,NY,,,,,,,,,0,3,3,0,,,,,,,,,,,,,4.75,,,,,,,,,,,,,,,,None,390.1397591999994,None,390.1397591999994,None,390.1397591999994,None,,,,,,001,2022_Nov_17_1210,FacesNamesProffessions_Encoding,2021.2.3,118.68464184918903,
recall_names,2,Images_Faces/O10.jpg,Jan,0,E.,J.,P.,NY,,,,,,,,,0,4,4,9,,,,,,,,,,,,,9.5,,,,,,,,,,,,,,,,None,398.89802939999936,None,398.89802939999936,None,398.89802939999936,None,,,,,,001,2022_Nov_17_1210,FacesNamesProffessions_Encoding,2021.2.3,118.68464184918903,
recall_names,1,Images_Faces/O11.jpg,Gustav,0,G.,M.,S.,NY,,,,,,,,,0,5,5,10,,,,,,,,,,,,,6.5,,,,,,,,,,,,,,,,None,412.41510410000046,None,412.41510410000046,None,412.41510410000046,None,,,,,,001,2022_Nov_17_1210,FacesNamesProffessions_Encoding,2021.2.3,118.68464184918903,
recall_names,2,Images_Faces/O13.jpg,Peter,0,J.,P.,K.,NY,,,,,,,,,0,6,6,12,,,,,,,,,,,,,8.0,,,,,,,,,,,,,,,,None,422.9231198999987,None,422.9231198999987,None,422.9231198999987,None,,,,,,001,2022_Nov_17_1210,FacesNamesProffessions_Encoding,2021.2.3,118.68464184918903,
recall_names,1,Images_Faces/O14.jpg,Lennart,0,L.,I.,P.,NY,,,,,,,,,0,7,7,13,,,,,,,,,,,,,3.25,,,,,,,,,,,,,,,,None,434.9392172000007,None,434.9392172000007,None,434.9392172000007,None,,,,,,001,2022_Nov_17_1210,FacesNamesProffessions_Encoding,2021.2.3,118.68464184918903,
recall_names,1,Images_Faces/O9.jpg,Nils,0,N.,V.,G.,NY,,,,,,,,,0,8,8,8,,,,,,,,,,,,,7.25,,,,,,,,,,,,,,,,None,442.2067160000006,None,442.2067160000006,None,442.2067160000006,None,,,,,,001,2022_Nov_17_1210,FacesNamesProffessions_Encoding,2021.2.3,118.68464184918903,
recall_names,1,Images_Faces/O15.jpg,Fredrik,0,F.,P.,A.,NY,,,,,,,,,0,9,9,14,,,,,,,,,,,,,8.25,,,,,,,,,,,,,,,,None,453.46487689999776,None,453.46487689999776,None,453.46487689999776,None,,,,,,001,2022_Nov_17_1210,FacesNamesProffessions_Encoding,2021.2.3,118.68464184918903,
recall_names,3,Images_Faces/O12.jpg,Hans,0,F.,M.,H.,NY,,,,,,,,,0,10,10,11,,,,,,,,,,,,,5.25,,,,,,,,,,,,,,,,None,465.73173959999986,None,465.73173959999986,None,465.73173959999986,None,,,,,,001,2022_Nov_17_1210,FacesNamesProffessions_Encoding,2021.2.3,118.68464184918903,
recall_names,3,Images_Faces/O5.jpg,Per,0,A.,B.,P.,NY,,,,,,,,,0,11,11,4,,,,,,,,,,,,,8.0,,,,,,,,,,,,,,,,None,474.9903484000024,None,474.9903484000024,None,474.9903484000024,None,,,,,,001,2022_Nov_17_1210,FacesNamesProffessions_Encoding,2021.2.3,118.68464184918903,
recall_names,2,Images_Faces/O3.jpg,Lars,0,P.,L.,K.,NY,,,,,,,,,0,12,12,2,,,,,,,,,,,,,5.25,,,,,,,,,,,,,,,,None,486.998268299998,None,486.998268299998,None,486.998268299998,None,,,,,,001,2022_Nov_17_1210,FacesNamesProffessions_Encoding,2021.2.3,118.68464184918903,
recall_names,2,Images_Faces/O8.jpg,Olof,0,P.,O.,V.,NY,,,,,,,,,0,13,13,7,,,,,,,,,,,,,5.25,,,,,,,,,,,,,,,,None,496.25642979999975,None,496.25642979999975,None,496.25642979999975,None,,,,,,001,2022_Nov_17_1210,FacesNamesProffessions_Encoding,2021.2.3,118.68464184918903,
recall_names,1,Images_Faces/O7.jpg,Johan,0,J.,L.,R.,NY,,,,,,,,,0,14,14,6,,,,,,,,,,,,,5.5,,,,,,,,,,,,,,,,None,505.5316380000004,None,505.5316380000004,None,505.5316380000004,None,,,,,,001,2022_Nov_17_1210,FacesNamesProffessions_Encoding,2021.2.3,118.68464184918903,
recall_proffessions,2,Images_Faces/SH5.png,0,Konstnär,W.,K.,O.,NY,,,,,,,,,,,,,0,0,0,4,,,,,,,,,4.75,,,,,,,,,,,,,,,,None,522.0816464000018,None,522.0816464000018,None,522.0816464000018,None,515.0386721000032,520.0415771999978,520.0303093000039,None,,001,2022_Nov_17_1210,FacesNamesProffessions_Encoding,2021.2.3,118.68464184918903,
recall_proffessions,1,Images_Faces/SH14.png,0,Snickare,S.,M.,T.,NY,,,,,,,,,,,,,0,1,1,13,,,,,,,,,9.0,,,,,,,,,,,,,,,,None,530.8070197999987,None,530.8070197999987,None,530.8070197999987,None,,,,,,001,2022_Nov_17_1210,FacesNamesProffessions_Encoding,2021.2.3,118.68464184918903,
recall_proffessions,3,Images_Faces/SH8.png,0,Målare,T.,S.,M.,NY,,,,,,,,,,,,,0,2,2,7,,,,,,,,,2.75,,,,,,,,,,,,,,,,None,543.8153748999976,None,543.8153748999976,None,543.8153748999976,None,,,,,,001,2022_Nov_17_1210,FacesNamesProffessions_Encoding,2021.2.3,118.68464184918903,
recall_proffessions,2,Images_Faces/SH10.png,0,Pilot,F.,P.,A.,NY,,,,,,,,,,,,,0,3,3,9,,,,,,,,,2.75,,,,,,,,,,,,,,,,None,550.5817261999982,None,550.5817261999982,None,550.5817261999982,None,,,,,,001,2022_Nov_17_1210,FacesNamesProffessions_Encoding,2021.2.3,118.68464184918903,
recall_proffessions,1,Images_Faces/SH7.png,0,Bonde,B.,A.,L.,NY,,,,,,,,,,,,,0,4,4,6,,,,,,,,,4.75,,,,,,,,,,,,,,,,None,557.3570433999994,None,557.3570433999994,None,557.3570433999994,None,,,,,,001,2022_Nov_17_1210,FacesNamesProffessions_Encoding,2021.2.3,118.68464184918903,
recall_proffessions,2,Images_Faces/SH1.png,0,Kassabiträde,G.,K.,A.,NY,,,,,,,,,,,,,0,5,5,0,,,,,,,,,3.25,,,,,,,,,,,,,,,,None,566.1152711000032,None,566.1152711000032,None,566.1152711000032,None,,,,,,001,2022_Nov_17_1210,FacesNamesProffessions_Encoding,2021.2.3,118.68464184918903,
recall_proffessions,1,Images_Faces/SH15.png,0,Murare,M.,I.,C.,NY,,,,,,,,,,,,,0,6,6,14,,,,,,,,,8.25,,,,,,,,,,,,,,,,None,573.3735939000035,None,573.3735939000035,None,573.3735939000035,None,,,,,,001,2022_Nov_17_1210,FacesNamesProffessions_Encoding,2021.2.3,118.68464184918903,
recall_proffessions,1,Images_Faces/SH11.png,0,HR-specialist,H.,M.,T.,NY,,,,,,,,,,,,,0,7,7,10,,,,,,,,,7.25,,,,,,,,,,,,,,,,None,585.6403256999984,None,585.6403256999984,None,585.6403256999984,None,,,,,,001,2022_Nov_17_1210,FacesNamesProffessions_Encoding,2021.2.3,118.68464184918903,
recall_proffessions,1,Images_Faces/SH9.png,0,Företagssäljare,F.,L.,A.,NY,,,,,,,,,,,,,0,8,8,8,,,,,,,,,2.75,,,,,,,,,,,,,,,,None,596.9070793999999,None,596.9070793999999,None,596.9070793999999,None,,,,,,001,2022_Nov_17_1210,FacesNamesProffessions_Encoding,2021.2.3,118.68464184918903,
recall_proffessions,1,Images_Faces/SH6.png,0,Parkeringsvakt,P.,K.,S.,NY,,,,,,,,,,,,,0,9,9,5,,,,,,,,,9.75,,,,,,,,,,,,,,,,None,603.6653191000005,None,603.6653191000005,None,603.6653191000005,None,,,,,,001,2022_Nov_17_1210,FacesNamesProffessions_Encoding,2021.2.3,118.68464184918903,
recall_proffessions,2,Images_Faces/SH12.png,0,Ingenjör,L.,I.,G.,NY,,,,,,,,,,,,,0,10,10,11,,,,,,,,,7.5,,,,,,,,,,,,,,,,None,617.4321579000025,None,617.4321579000025,None,617.4321579000025,None,,,,,,001,2022_Nov_17_1210,FacesNamesProffessions_Encoding,2021.2.3,118.68464184918903,
recall_proffessions,2,Images_Faces/SH13.png,0,Lagerarbetare,D.,L.,N.,NY,,,,,,,,,,,,,0,11,11,12,,,,,,,,,9.5,,,,,,,,,,,,,,,,None,628.9405384999991,None,628.9405384999991,None,628.9405384999991,None,,,,,,001,2022_Nov_17_1210,FacesNamesProffessions_Encoding,2021.2.3,118.68464184918903,
recall_proffessions,2,Images_Faces/SH2.png,0,Grundskollärare,F.,G.,U.,NY,,,,,,,,,,,,,0,12,12,1,,,,,,,,,8.0,,,,,,,,,,,,,,,,None,642.4487032000034,None,642.4487032000034,None,642.4487032000034,None,,,,,,001,2022_Nov_17_1210,FacesNamesProffessions_Encoding,2021.2.3,118.68464184918903,
recall_proffessions,1,Images_Faces/SH3.png,0,Journalist,J.,B.,G.,NY,,,,,,,,,,,,,0,13,13,2,,,,,,,,,9.0,,,,,,,,,,,,,,,,None,654.4571705999988,None,654.4571705999988,None,654.4571705999988,None,,,,,,001,2022_Nov_17_1210,FacesNamesProffessions_Encoding,2021.2.3,118.68464184918903,
recall_proffessions,2,Images_Faces/SH4.png,0,Fritidspedagog,G.,F.,N.,NY,,,,,,,,,,,,,0,14,14,3,,,,,,,,,8.25,,,,,,,,,,,,,,,,None,667.4739281000002,None,667.4739281000002,None,667.4739281000002,None,,,,,,001,2022_Nov_17_1210,FacesNamesProffessions_Encoding,2021.2.3,118.68464184918903,
